"Time (s)"	"Acceleration x (m/s^2)"	"Acceleration y (m/s^2)"	"Acceleration z (m/s^2)"
3,689591700E-2	-3,738000154E0	3,694050074E0	6,109950066E0
5,705682000E-2	-2,560050011E0	3,666000128E0	7,957950592E0
7,722031500E-2	-4,245000362E0	3,369000196E0	1,043895054E1
9,738404500E-2	-4,318950176E0	2,401950121E0	1,251705074E1
1,175476890E-1	-3,855000257E0	2,725050211E0	1,161405087E1
1,377111980E-1	-2,920950174E0	2,746050119E0	9,562050819E0
1,578748230E-1	-2,180999994E0	2,866050243E0	7,873950481E0
1,780382940E-1	-1,305000067E0	3,129000187E0	7,585050583E0
1,982019840E-1	-2,437950134E0	2,691000223E0	1,007205009E1
2,183656400E-1	-2,260050058E0	2,356050014E0	9,763050079E0
2,385293130E-1	-2,104950190E0	2,374950171E0	9,367950439E0
2,586927500E-1	-2,413950205E0	2,485050201E0	8,767050743E0
2,788563510E-1	-2,512050152E0	2,452050209E0	8,538000107E0
2,990196970E-1	-2,563950062E0	2,394000053E0	8,499000549E0
3,191833700E-1	-2,677050114E0	2,430000067E0	8,575950623E0
3,393468270E-1	-2,806050062E0	2,287050009E0	9,009000778E0
3,595104400E-1	-2,590950012E0	2,136000156E0	9,604950905E0
3,796739160E-1	-2,205000162E0	2,111999989E0	9,234000206E0
3,998375210E-1	-1,735950112E0	2,217000008E0	8,323950768E0
4,200011920E-1	-1,710000038E0	2,385000229E0	7,810050488E0
4,401646650E-1	-1,669050097E0	2,458950043E0	8,305050850E0
4,603282520E-1	-1,792950034E0	2,260050058E0	9,025950432E0
4,804916980E-1	-1,849050045E0	2,155050039E0	9,414000511E0
5,006553850E-1	-1,798050046E0	1,872000098E0	9,790050507E0
5,208189910E-1	-1,891950130E0	1,882050037E0	9,945000648E0
5,409824300E-1	-1,807950139E0	1,803000093E0	9,814050674E0
5,611460210E-1	-2,278950214E0	1,767000079E0	1,050105095E1
5,813095120E-1	-2,490000010E0	1,531950116E0	1,126005077E1
6,014732310E-1	-2,332050085E0	1,474950075E0	1,118595028E1
6,216368460E-1	-1,906050086E0	1,587000132E0	1,016295052E1
6,418003320E-1	-1,813050032E0	1,798050046E0	9,457050323E0
6,619640380E-1	-2,029950142E0	1,863000035E0	1,001700020E1
6,821276400E-1	-2,418000221E0	2,065950155E0	1,035195065E1
7,022913510E-1	-2,440050125E0	2,111999989E0	9,550050735E0
7,224548230E-1	-2,643000126E0	2,180999994E0	9,385050774E0
7,426184470E-1	-2,895000219E0	2,290950060E0	9,862050056E0
7,627819140E-1	-2,646000147E0	2,176050186E0	9,727950096E0
7,829455340E-1	-1,995000124E0	2,017950058E0	8,715000153E0
8,031090150E-1	-1,678950071E0	2,047049999E0	8,209950447E0
8,232726880E-1	-2,044950008E0	2,185950041E0	8,362950325E0
8,434363040E-1	-2,434950113E0	2,293950081E0	9,031050682E0
8,635997790E-1	-2,265000105E0	2,002050161E0	9,507000923E0
8,837633920E-1	-2,041949987E0	1,777050138E0	9,900000572E0
9,039267790E-1	-2,020950079E0	1,915050149E0	1,000800037E1
9,240905570E-1	-1,935000062E0	2,253000021E0	9,450000763E0
9,442539470E-1	-1,645050049E0	2,599950075E0	8,679000854E0
9,644175300E-1	-1,707000136E0	2,614950180E0	8,563950539E0
9,845810070E-1	-2,356050014E0	2,253000021E0	1,036905003E1
1,004744609E0	-2,974050045E0	1,786050081E0	1,312005043E1
1,024908289E0	-2,614950180E0	1,492050052E0	1,358205032E1
1,045071716E0	-2,446950197E0	2,868000031E0	1,109205055E1
1,065235321E0	-2,442000151E0	3,661050081E0	9,780000687E0
1,085399013E0	-2,622000217E0	3,931050301E0	1,065195084E1
1,105562437E0	-2,196000099E0	3,940950155E0	1,144200039E1
1,125726028E0	-1,621050119E0	3,730050087E0	1,087005043E1
1,145889514E0	-1,171050072E0	3,892950296E0	9,622050285E0
1,166053107E0	-1,183050036E0	4,378950119E0	8,538000107E0
1,186216549E0	-1,683000088E0	5,722050190E0	7,612950325E0
1,206380249E0	-2,365950108E0	5,698050499E0	9,082950592E0
1,226543885E0	-1,117950082E0	4,389000416E0	9,322950363E0
1,246707331E0	8,610000610E-1	3,369000196E0	8,394000053E0
1,266870930E0	9,780000448E-1	3,565050125E0	7,345050335E0
1,287034401E0	1,336950064E0	2,988000154E0	7,822050571E0
1,307198026E0	1,648950100E0	1,522950053E0	1,015395069E1
1,327361692E0	1,255950093E0	4,140000343E-1	1,215495014E1
1,347525130E0	4,420500100E-1	1,009950042E0	1,266300106E1
1,367688774E0	-4,860000312E-1	1,602000117E0	1,111905098E1
1,387852243E0	-2,646000147E0	2,586000204E0	1,158495045E1
1,408015933E0	-1,828950047E0	2,200050116E0	1,073100090E1
1,428179544E0	-3,690000176E-1	2,196000099E0	7,837950230E0
1,448343236E0	7,095000148E-2	2,767950058E0	5,875050068E0
1,468506616E0	-7,020000219E-1	3,103050232E0	6,316050529E0
1,488670077E0	-8,760000467E-1	3,781050205E0	7,326000214E0
1,508833781E0	-9,480000734E-1	3,534000158E0	6,577050209E0
1,528997404E0	-2,641050100E0	2,751000166E0	7,375950336E0
1,549161087E0	-1,815000057E0	3,867000103E0	7,564950466E0
1,569324447E0	-1,231050014E0	4,828950405E0	7,446000576E0
1,589487887E0	-1,635000110E0	5,227050304E0	8,077950478E0
1,609651517E0	-1,324050069E0	4,831950188E0	7,825950146E0
1,629815022E0	-1,395000052E-2	4,674000263E0	7,125000477E0
1,649978948E0	1,995000057E-2	4,456050396E0	8,320050240E0
1,670142356E0	-4,570500255E-1	4,279050350E0	9,463950157E0
1,690305815E0	-7,330500484E-1	4,473000050E0	9,451950073E0
1,710469510E0	-2,629500031E-1	4,396049976E0	8,779050827E0
1,730633140E0	8,295000345E-2	3,607950211E0	8,752950668E0
1,750796601E0	-3,949500322E-1	3,876000166E0	9,045000076E0
1,770960247E0	-9,649500251E-1	3,715950251E0	8,614050865E0
1,791123664E0	-1,795950055E0	5,125950336E0	8,350950241E0
1,811287256E0	-6,919500232E-1	4,269000053E0	7,407000542E0
1,831450958E0	7,549500465E-1	2,691000223E0	7,716000557E0
1,851614432E0	1,894950032E0	1,726050138E0	8,593050003E0
1,871778110E0	2,041050196E0	2,071050167E0	7,513050556E0
1,891941720E0	-3,589500189E-1	4,243050098E0	8,260050774E0
1,912105196E0	-9,079500437E-1	4,699950218E0	8,005949974E0
1,932268569E0	-8,310000300E-1	4,872000217E0	8,430000305E0
1,952432266E0	-2,830500007E-1	5,050050259E0	8,017950058E0
1,972595873E0	-1,219500080E-1	5,017950058E0	8,614050865E0
1,992759358E0	-1,005000062E-2	5,062050343E0	9,109950066E0
2,012923050E0	8,200500607E-1	5,208000183E0	9,355950356E0
2,033086676E0	8,080500364E-1	5,368050098E0	9,306000710E0
2,053250117E0	6,859500408E-1	5,791950226E0	8,652000427E0
2,073413801E0	6,360000372E-1	5,856000423E0	7,683000565E0
2,093577165E0	3,705000132E-2	6,105000496E0	7,017000198E0
2,113740858E0	-3,829500079E-1	6,370950222E0	7,348050117E0
2,133904488E0	-2,950500250E-1	6,265950203E0	7,699950218E0
2,154067940E0	-1,129500046E-1	6,022050381E0	8,017950058E0
2,174231569E0	-2,989500165E-1	5,851950169E0	8,704950333E0
2,194395241E0	1,605000161E-2	5,641050339E0	9,025950432E0
2,214558678E0	-3,000000026E-3	5,848950386E0	8,854050636E0
2,234722291E0	-1,440000087E-1	6,025950432E0	8,377050400E0
2,254885766E0	-1,699500084E-1	5,878050327E0	8,712000847E0
2,275049455E0	-2,539499998E-1	5,794050217E0	9,082950592E0
2,295213154E0	-2,299500108E-1	5,727000237E0	9,067049980E0
2,315376553E0	8,505000174E-2	5,440050125E0	8,365050316E0
2,335540156E0	1,590000093E-1	5,754000187E0	6,727050304E0
2,355703603E0	1,210500076E-1	5,263050079E0	6,586050510E0
2,375867252E0	3,409500122E-1	5,325000286E0	6,655950546E0
2,396030946E0	4,870500267E-1	5,229000092E0	7,390950203E0
2,416194644E0	5,659500360E-1	5,299050331E0	7,627950191E0
2,436358047E0	9,160500169E-1	5,418000221E0	7,366950512E0
2,456521496E0	7,579500079E-1	5,706000328E0	7,149000168E0
2,476685191E0	1,469999999E-1	6,319050312E0	7,498050213E0
2,496848807E0	-3,229500055E-1	6,558000088E0	7,968000412E0
2,517012514E0	-2,110500038E-1	6,301950455E0	9,007050514E0
2,537175995E0	2,239500135E-1	5,878050327E0	9,826050758E0
2,557339615E0	4,129500091E-1	5,458950043E0	1,010805035E1
2,577503077E0	8,295000345E-2	5,457000256E0	1,000305080E1
2,597666670E0	1,110000089E-1	5,148000240E0	9,307950020E0
2,617830113E0	-1,650000066E-1	5,902050495E0	8,700000763E0
2,637993803E0	4,080000222E-1	5,323050022E0	7,909950256E0
2,658157411E0	3,529500067E-1	5,347050190E0	7,483950138E0
2,678320856E0	2,260500044E-1	5,410950184E0	7,266000271E0
2,698484530E0	4,920000136E-1	5,337000370E0	6,820950508E0
2,718648135E0	7,459500432E-1	5,241000175E0	6,459000111E0
2,738811602E0	1,087950110E0	4,576050282E0	6,355950356E0
2,758975219E0	3,559500277E-1	5,133000374E0	7,350000381E0
2,779138710E0	-1,819500029E-1	4,984950066E0	8,644950867E0
2,799302329E0	-1,920000017E-1	4,434000015E0	1,032795048E1
2,819466019E0	1,500000060E-1	4,573050022E0	1,055400085E1
2,839629476E0	3,100500107E-1	4,711950302E0	9,370950699E0
2,859793161E0	2,020500153E-1	4,599000454E0	9,684000015E0
2,879956565E0	-3,105000220E-2	4,971000195E0	9,535950661E0
2,900120245E0	5,595000088E-2	5,095050335E0	9,637050629E0
2,920283856E0	2,890500128E-1	5,140950203E0	9,691950798E0
2,940447285E0	1,159500033E-1	5,550000191E0	8,776950836E0
2,960610978E0	-2,179500163E-1	5,670000076E0	8,502000809E0
2,980774611E0	-4,740000367E-1	5,919000149E0	8,077950478E0
3,000938078E0	-6,490500569E-1	5,884950161E0	7,924950600E0
3,021101727E0	-5,509500504E-1	5,590950489E0	7,764000416E0
3,041265189E0	-2,590500116E-1	5,335050106E0	8,083050728E0
3,061428874E0	-5,479500294E-1	5,665050507E0	8,584950447E0
3,081592505E0	-8,209500313E-1	5,835000515E0	8,037000656E0
3,101755963E0	-5,050500035E-1	5,607000351E0	7,800000191E0
3,121919643E0	-6,195000187E-2	5,362950325E0	7,672950268E0
3,142083254E0	4,750500321E-1	5,145000458E0	7,360050201E0
3,162246961E0	8,629500270E-1	4,879950047E0	7,327950478E0
3,182410418E0	7,410000563E-1	4,735949993E0	8,152050018E0
3,202574110E0	5,059500337E-1	4,686000347E0	8,619000435E0
3,222737716E0	-1,840500087E-1	5,100000381E0	8,698050499E0
3,242901167E0	-3,259500265E-1	5,023050308E0	8,629050255E0
3,263064865E0	-1,905000024E-2	5,113950253E0	8,217000008E0
3,283228504E0	2,910000086E-1	5,253000259E0	7,672950268E0
3,303391961E0	5,500500202E-1	5,341950417E0	7,266000271E0
3,323555566E0	5,950500369E-1	5,488050461E0	7,144050121E0
3,343719028E0	5,350500345E-1	5,518950462E0	7,209000111E0
3,363882739E0	2,719500065E-1	5,698050499E0	7,198950291E0
3,384046140E0	-7,660500407E-1	6,096000195E0	7,680000305E0
3,404209771E0	-1,420050025E0	6,283050060E0	8,182950020E0
3,424373233E0	-1,434000015E0	6,055050373E0	8,596950531E0
3,444536923E0	-1,045950055E0	5,833050251E0	9,174000740E0
3,464700535E0	-2,800500095E-1	5,476050377E0	9,196050644E0
3,484864231E0	4,939500093E-1	5,320050240E0	8,257050514E0
3,505027659E0	3,250500262E-1	5,428050041E0	8,204999924E0
3,525191275E0	1,450500041E-1	5,481000423E0	7,675950527E0
3,545354976E0	-1,960500032E-1	5,823000431E0	7,351950169E0
3,565518433E0	-7,519500256E-1	5,976000309E0	7,338000298E0
3,585682047E0	-1,288050056E0	6,237000465E0	7,494000435E0
3,605845495E0	-1,759950042E0	6,297000408E0	8,086950302E0
3,626009187E0	-1,264050007E0	5,694000244E0	8,820000648E0
3,646172809E0	-3,930000067E-1	5,344050407E0	9,121950150E0
3,666336259E0	4,750500321E-1	5,052000046E0	9,253050804E0
3,686499954E0	9,570000172E-1	5,104950428E0	8,640000343E0
3,706663581E0	8,320500255E-1	5,689050198E0	7,714050293E0
3,726827050E0	1,930500120E-1	5,959050179E0	7,531950474E0
3,746990740E0	-5,989500284E-1	6,333000183E0	7,630050182E0
3,767154355E0	-8,689500690E-1	6,010050297E0	8,077950478E0
3,787317802E0	-6,370500326E-1	5,389950275E0	8,154000282E0
3,807481417E0	-1,650000066E-1	4,827000141E0	7,957950592E0
3,827644891E0	2,220000178E-1	4,777050018E0	7,644000530E0
3,847808573E0	6,139500141E-1	5,016000271E0	6,952950478E0
3,867972197E0	6,190500259E-1	5,430000305E0	6,085950375E0
3,888135908E0	6,550500393E-1	6,072000504E0	5,169000149E0
3,908299358E0	6,640500426E-1	6,709050179E0	4,375950336E0
3,928462985E0	-2,320500165E-1	7,195050240E0	5,028000355E0
3,948626691E0	-9,720000625E-1	7,306950569E0	7,350000381E0
3,968790163E0	-9,340500236E-1	6,289950371E0	1,033605003E1
3,988953773E0	-1,459500045E-1	5,172000408E0	1,263405037E1
4,009117223E0	9,829500318E-1	4,675950050E0	1,223400021E1
4,029280847E0	1,162950039E0	5,101950169E0	1,006500053E1
4,049444290E0	7,000500560E-1	5,374950409E0	8,698050499E0
4,069608206E0	-7,905000448E-2	5,727000237E0	7,714050293E0
4,089771668E0	-7,710000277E-1	5,755950451E0	6,976050377E0
4,109935264E0	-5,820000172E-1	5,617050171E0	6,118950367E0
4,130098733E0	-5,805000290E-2	5,398950100E0	5,638050079E0
4,150262334E0	3,049500287E-1	5,377950191E0	5,415000439E0
4,170426027E0	4,609500170E-1	5,590950489E0	5,973000050E0
4,190589492E0	6,859500408E-1	5,818050385E0	6,579000473E0
4,210753099E0	9,349500537E-1	5,763000488E0	7,210950375E0
4,230916803E0	6,360000372E-1	6,049950123E0	7,872000217E0
4,251080267E0	-3,019500077E-1	6,187050343E0	8,959050179E0
4,271243872E0	-1,386000037E0	5,356050491E0	1,121895027E1
4,291407543E0	-1,216050029E0	4,531949997E0	1,207605076E1
4,311570991E0	3,495000303E-2	3,766050100E0	1,047195053E1
4,331734589E0	5,850000381E-1	3,876000166E0	8,197950363E0
4,351898289E0	8,080500364E-1	4,618950367E0	6,415950298E0
4,372061750E0	4,590000212E-1	5,818050385E0	5,323950291E0
4,392225380E0	1,450500041E-1	6,880950451E0	4,579950333E0
4,412388853E0	-6,730500460E-1	7,594950199E0	4,692000389E0
4,432552536E0	-2,308050156E0	8,092950821E0	6,306000233E0
4,452716231E0	-2,839950085E0	7,747950554E0	8,431950569E0
4,472879843E0	-2,377950191E0	7,240050316E0	9,502050400E0
4,493043315E0	-1,408050060E0	6,462000370E0	1,003395081E1
4,513206925E0	-1,006049991E0	5,859000206E0	1,027305031E1
4,533370618E0	-1,006049991E0	5,458950043E0	1,049400043E1
4,553534069E0	-8,910000324E-1	5,064000130E0	9,874050140E0
4,573697770E0	-7,810500264E-1	4,851000309E0	8,380050659E0
4,593861165E0	-6,709500551E-1	4,602000237E0	7,065000534E0
4,614024866E0	-6,150000095E-1	4,984950066E0	6,150000095E0
4,634188488E0	-2,595000155E-2	5,587950230E0	5,161950111E0
4,654351940E0	4,369500279E-1	6,361950397E0	4,792950153E0
4,674515630E0	4,680000246E-1	6,832950115E0	4,740000248E0
4,694679243E0	-7,759500146E-1	7,080000401E0	6,534000397E0
4,714843010E0	-2,761050224E0	7,324050426E0	9,708000183E0
4,735006640E0	-3,141000032E0	6,988950253E0	1,138005066E1
4,755170029E0	-1,759950042E0	6,205950260E0	1,044105053E1
4,775333745E0	-7,300500274E-1	5,574000359E0	8,868000031E0
4,795497192E0	-7,380000353E-1	5,667000294E0	8,107049942E0
4,815660898E0	-5,989500284E-1	5,446950436E0	7,615950584E0
4,835824293E0	7,500000298E-2	4,804950237E0	6,832950115E0
4,855987975E0	4,830000103E-1	4,783950329E0	5,830050468E0
4,876151593E0	2,689500153E-1	5,113950253E0	5,791050434E0
4,896315054E0	2,340000123E-1	5,859000206E0	5,787000179E0
4,916478713E0	4,750500321E-1	6,823950291E0	5,202000141E0
4,936642331E0	2,530499995E-1	6,994050503E0	5,226000309E0
4,956805819E0	-9,870000482E-1	6,739950180E0	7,543950558E0
4,976969740E0	-2,409000158E0	6,181950092E0	1,152300072E1
4,997133114E0	-1,966050148E0	5,623950481E0	1,265295029E1
5,017296798E0	-4,960500300E-1	5,196000099E0	1,075500011E1
5,037460270E0	7,095000148E-2	4,918050289E0	9,160050392E0
5,057623903E0	1,620000005E-1	4,882050037E0	8,607000351E0
5,077787595E0	-1,695000008E-2	4,858050346E0	8,146950722E0
5,097951072E0	-2,629500031E-1	4,912950039E0	7,576950550E0
5,118114773E0	-6,780000329E-1	5,068950176E0	7,683000565E0
5,138278375E0	-5,820000172E-1	5,232000351E0	7,561050415E0
5,158441828E0	-1,609500051E-1	5,217000484E0	7,126950264E0
5,178605520E0	-3,690000176E-1	5,373000145E0	7,120050430E0
5,198769140E0	-1,045950055E0	5,385000229E0	8,257050514E0
5,218932635E0	-1,570950031E0	5,365950108E0	9,322950363E0
5,239096296E0	-9,409500360E-1	5,044950008E0	9,676950455E0
5,259259966E0	-2,110500038E-1	4,791000366E0	9,382950783E0
5,279423433E0	-5,805000290E-2	4,669050217E0	9,720000267E0
5,299587064E0	4,005000368E-2	4,729050159E0	9,778050423E0
5,319750770E0	3,150000274E-1	4,755000114E0	8,772000313E0
5,339914252E0	2,620500028E-1	4,900950432E0	7,965000153E0
5,360077932E0	-1,630500108E-1	4,765050411E0	8,128050804E0
5,380241523E0	-7,500000596E-1	4,408050060E0	9,040050507E0
5,400404959E0	-9,120000601E-1	4,252050400E0	9,244050026E0
5,420568588E0	-5,029500127E-1	4,564050198E0	8,538000107E0
5,440732259E0	-2,869500220E-1	5,232000351E0	7,090950489E0
5,460895701E0	-7,695000619E-2	5,823000431E0	5,703000069E0
5,481059384E0	-4,530000091E-1	6,361950397E0	5,533050060E0
5,501222751E0	-1,276050091E0	6,627000332E0	6,169950485E0
5,521386683E0	-2,758050203E0	6,486000538E0	8,164050102E0
5,541550155E0	-3,465000153E0	6,022050381E0	1,115400028E1
5,561713770E0	-1,771950126E0	4,813050270E0	1,139400101E1
5,581877185E0	1,469999999E-1	4,398000240E0	9,397050858E0
5,602040880E0	4,800000191E-1	4,591950417E0	7,810050488E0
5,622204578E0	-1,990500093E-1	5,083050251E0	7,273050308E0
5,642368203E0	-9,460500479E-1	5,109000206E0	7,230000496E0
5,662531676E0	-1,317000031E0	4,924950123E0	7,612950325E0
5,682695356E0	-1,175999999E0	4,549050331E0	8,434950829E0
5,702858986E0	2,620500028E-1	4,125000000E0	8,025000572E0
5,723022443E0	1,234050035E0	4,315050125E0	7,222950459E0
5,743186149E0	9,610500336E-1	4,594950199E0	7,597050190E0
5,763349765E0	2,340000123E-1	4,834050179E0	8,929950714E0
5,783513423E0	-4,789500237E-1	5,068950176E0	9,936000824E0
5,803676889E0	-6,780000329E-1	5,038050175E0	1,009095001E1
5,823840519E0	-7,590000629E-1	5,080950260E0	9,715950012E0
5,844004000E0	-1,305000067E0	5,035050392E0	1,006305027E1
5,864167602E0	-1,140000105E0	4,867950439E0	1,020195007E1
5,884331060E0	-3,570000231E-1	4,606950283E0	9,036000252E0
5,904494740E0	4,395000264E-2	4,554000378E0	7,630050182E0
5,924658403E0	-5,359500051E-1	4,900950432E0	7,168050289E0
5,944822009E0	-1,104000092E0	5,014050007E0	7,395000458E0
5,964985470E0	-1,384050012E0	4,908000469E0	7,410000324E0
5,985149079E0	-1,003050089E0	4,336050034E0	7,941000462E0
6,005312769E0	-4,549500346E-1	3,984000206E0	8,803050041E0
6,025476242E0	-7,905000448E-2	4,019999981E0	8,686050415E0
6,045639862E0	-5,940000415E-1	4,968000412E0	8,044050217E0
6,065803553E0	-8,550000191E-1	5,587950230E0	7,873950481E0
6,085967028E0	-3,979500234E-1	5,811000347E0	7,435950279E0
6,106130740E0	-3,259500265E-1	6,295050144E0	7,008000374E0
6,126294350E0	-1,252050042E0	6,685050488E0	8,169000626E0
6,146457810E0	-2,217000008E0	6,534000397E0	9,964950562E0
6,166621420E0	-2,434950113E0	5,476050377E0	1,210695076E1
6,186785107E0	-1,330950022E0	4,417950153E0	1,231800079E1
6,206948557E0	-1,009500027E-1	3,898050070E0	1,017495060E1
6,227112160E0	2,239500135E-1	4,212000370E0	7,933950424E0
6,247275933E0	2,809500098E-1	4,663950443E0	6,130950451E0
6,267439326E0	-1,650000066E-1	5,326950073E0	5,314950466E0
6,287602949E0	-8,910000324E-1	5,758050442E0	5,299950123E0
6,307766629E0	-1,402950048E0	5,749050140E0	5,739000320E0
6,327930098E0	-1,762050033E0	5,281950474E0	7,165950298E0
6,348094024E0	-1,437000036E0	4,645050049E0	8,557050705E0
6,368257417E0	-5,440500379E-1	4,105950356E0	9,316050529E0
6,388420896E0	4,039500058E-1	3,831000090E0	9,186000824E0
6,408584511E0	5,260500312E-1	4,281000137E0	8,808000565E0
6,428748226E0	1,995000057E-2	4,924950123E0	8,746050835E0
6,448911903E0	-7,350000143E-1	5,373000145E0	9,127050400E0
6,469075375E0	-1,438950062E0	5,497050285E0	9,868950844E0
6,489239019E0	-1,654950023E0	5,064000130E0	1,064895058E1
6,509402483E0	-1,329000115E0	4,312050343E0	1,094595051E1
6,529566139E0	-3,900000155E-1	3,876000166E0	9,768000603E0
6,549729750E0	6,310500503E-1	3,946050167E0	8,419950485E0
6,569893428E0	1,447050095E0	4,486950397E0	6,222000122E0
6,590056875E0	1,186050057E0	5,248050213E0	4,945950031E0
6,610220481E0	-2,059500068E-1	5,952000141E0	5,311950207E0
6,630383901E0	-2,101950169E0	6,337950230E0	7,017000198E0
6,650547591E0	-3,373950243E0	5,875950336E0	9,648000717E0
6,670711177E0	-3,225000143E0	4,614000320E0	1,216200066E1
6,690874636E0	-9,990000725E-1	3,667950153E0	1,176705074E1
6,711038355E0	5,689499974E-1	3,630000114E0	9,358950615E0
6,731202067E0	7,480500340E-1	4,200000286E0	7,066950321E0
6,751365711E0	7,950000465E-3	5,077950478E0	6,652950287E0
6,771529178E0	-1,140000105E0	5,674950123E0	8,071050644E0
6,791692819E0	-1,339050055E0	5,856000423E0	8,590050697E0
6,811856514E0	-1,458000064E0	5,737050056E0	8,590050697E0
6,832019992E0	-1,578000069E0	5,527950287E0	9,459000587E0
6,852183634E0	-1,209000111E0	5,164950371E0	1,043595028E1
6,872347112E0	-3,229500055E-1	4,722000122E0	9,840000153E0
6,892510799E0	8,295000345E-2	4,223999977E0	9,079050064E0
6,912674406E0	-4,650000334E-1	4,306950092E0	9,129000664E0
6,932838093E0	-3,520500064E-1	4,579950333E0	8,329050064E0
6,953001541E0	-1,319999993E-1	5,047050476E0	6,972000122E0
6,973165229E0	-3,469500244E-1	5,554950237E0	6,000000477E0
6,993328830E0	-8,620500565E-1	5,976000309E0	6,115050316E0
7,013492277E0	-1,611000061E0	5,956950188E0	7,363950253E0
7,033655893E0	-2,131050110E0	5,253000259E0	9,411000252E0
7,053819585E0	-1,633050084E0	4,450950146E0	1,139595032E1
7,073983265E0	-5,389500260E-1	4,129950047E0	1,043895054E1
7,094146741E0	9,705000371E-2	4,509000301E0	7,920000553E0
7,114310344E0	-4,620000124E-1	4,792950153E0	7,494000435E0
7,134473783E0	-1,365000010E0	4,954050064E0	8,928000450E0
7,154637461E0	-1,887000084E0	4,884000301E0	9,627000809E0
7,174801145E0	-1,165950060E0	4,983000278E0	8,359950066E0
7,194964531E0	1,095000096E-2	4,942050457E0	6,865950108E0
7,215128222E0	8,295000345E-2	5,317950249E0	6,289050102E0
7,235291842E0	-5,749500394E-1	5,713050365E0	6,553050518E0
7,255455329E0	-1,414950013E0	5,629050255E0	7,932000160E0
7,275618976E0	-2,065950155E0	5,386950493E0	9,499950409E0
7,295782606E0	-2,062050104E0	5,053950310E0	1,054395008E1
7,315946303E0	-1,444050074E0	4,663950443E0	9,784950256E0
7,336109783E0	-1,498950124E0	4,759950161E0	9,433050156E0
7,356273434E0	-1,555950046E0	4,726050377E0	9,439949989E0
7,376437100E0	-1,101000071E0	4,531949997E0	8,758049965E0
7,396600581E0	-6,780000329E-1	4,417950153E0	7,707000256E0
7,416764182E0	-7,690500617E-1	4,635000229E0	7,246950150E0
7,436927634E0	-6,799500585E-1	4,912950039E0	6,871050358E0
7,457091271E0	-6,150000095E-1	5,236050129E0	6,736950397E0
7,477254971E0	-7,590000629E-1	5,476050377E0	7,003050327E0
7,497418683E0	-1,252050042E0	5,776950359E0	7,612950325E0
7,517582073E0	-1,770000100E0	5,859000206E0	8,449049950E0
7,537745769E0	-1,722000122E0	5,526000500E0	9,298950195E0
7,557909452E0	-1,240050077E0	5,128950119E0	9,802050591E0
7,578072937E0	-8,359500170E-1	5,002050400E0	9,394950867E0
7,598236648E0	-1,216050029E0	4,908000469E0	9,193950653E0
7,618400033E0	-1,534950018E0	5,028000355E0	9,615000725E0
7,638563725E0	-1,140000105E0	4,698000431E0	8,949000359E0
7,658727315E0	-5,320500135E-1	4,621050358E0	7,651950359E0
7,678890778E0	-5,770500302E-1	4,828950405E0	6,865950108E0
7,699054462E0	-8,599500656E-1	5,119050026E0	6,523950100E0
7,719218067E0	-1,045950055E0	5,386950493E0	6,610050201E0
7,739381514E0	-1,141950011E0	5,488050461E0	7,012050152E0
7,759545127E0	-1,651950121E0	5,266950130E0	8,173950195E0
7,779708797E0	-1,987050056E0	5,137950420E0	8,956950188E0
7,799872259E0	-1,803000093E0	4,795950413E0	9,535950661E0
7,820035891E0	-1,456050038E0	4,570950031E0	9,409049988E0
7,840199586E0	-1,480050087E0	4,633050442E0	8,832000732E0
7,860363057E0	-1,267050028E0	4,657050133E0	8,131050110E0
7,880526685E0	-9,510000348E-1	4,936950207E0	7,450950146E0
7,900690360E0	-6,730500460E-1	5,197950363E0	6,382950306E0
7,920854053E0	-7,950000167E-1	5,349000454E0	6,526050091E0
7,941017519E0	-1,534950018E0	5,245950222E0	8,185950279E0
7,961181140E0	-1,975050092E0	4,948950291E0	9,912000656E0
7,981344612E0	-1,731000066E0	4,437000275E0	1,107300091E1
8,001508238E0	-7,540500164E-1	4,189949989E0	1,027605057E1
8,021671937E0	-3,090000153E-1	4,582950115E0	8,590050697E0
8,041835372E0	-5,509500504E-1	4,828950405E0	7,939050198E0
8,061998992E0	-9,910500646E-1	4,984950066E0	8,101950645E0
8,082162682E0	-1,057950020E0	5,239050388E0	7,621050358E0
8,102326375E0	-1,351050019E0	5,494950294E0	7,120050430E0
8,122489846E0	-1,681050062E0	5,689050198E0	7,282950401E0
8,142653481E0	-1,789050102E0	5,614950180E0	8,593050003E0
8,162817168E0	-1,671000123E0	5,277000427E0	9,225000381E0
8,182980630E0	-1,212000012E0	5,004000187E0	8,722050667E0
8,203144245E0	-1,204050064E0	4,920000076E0	8,830050468E0
8,223307923E0	-1,276050091E0	5,023050308E0	8,727000237E0
8,243471370E0	-1,204050064E0	4,930050373E0	8,322000504E0
8,263634975E0	-1,458000064E0	4,738050461E0	8,635950089E0
8,283798439E0	-1,401000023E0	4,561050415E0	9,031050682E0
8,303962115E0	-7,590000629E-1	4,522950172E0	8,844000816E0
8,324125716E0	-5,389500260E-1	4,777050018E0	7,561050415E0
8,344289168E0	-7,729500532E-1	4,959000111E0	7,798050404E0
8,364452803E0	-1,032000065E0	5,068950176E0	8,806050301E0
8,384616275E0	-1,279050112E0	4,669050217E0	9,559950829E0
8,404779937E0	-1,377000093E0	4,570950031E0	9,969000816E0
8,424943547E0	-1,374000072E0	4,669050217E0	9,531000137E0
8,445107011E0	-1,231050014E0	4,956000328E0	8,317049980E0
8,465270602E0	-1,537050128E0	5,008950233E0	7,632000446E0
8,485434281E0	-1,771950126E0	5,232000351E0	8,092050552E0
8,505597751E0	-1,449000120E0	5,220000267E0	8,131050110E0
8,525761471E0	-1,357950091E0	4,984950066E0	7,534050465E0
8,545925081E0	-1,509000063E0	4,690050125E0	8,527950287E0
8,566088532E0	-1,681050062E0	4,328999996E0	9,379950523E0
8,586252222E0	-1,200000048E0	3,904950142E0	9,553050041E0
8,606415842E0	-4,909500182E-1	3,955050230E0	8,193000793E0
8,626579317E0	-1,410000026E-1	4,240050316E0	7,471950531E0
8,646743019E0	-1,609500051E-1	4,924950123E0	6,138000488E0
8,666906649E0	-3,190500140E-1	5,500050068E0	6,262950420E0
8,687070117E0	-7,830000520E-1	5,653050423E0	6,799050331E0
8,707233729E0	-1,540050030E0	5,667000294E0	8,109000206E0
8,727397409E0	-2,358000040E0	5,335050106E0	1,008705044E1
8,747560864E0	-2,500050068E0	4,468050003E0	1,260495090E1
8,767724583E0	-1,669050097E0	3,637050152E0	1,257900047E1
8,787888197E0	-5,100000501E-1	3,321000099E0	1,069695091E1
8,808051676E0	-1,410000026E-1	3,601050138E0	9,004050255E0
8,828215308E0	1,140000075E-1	4,161000252E0	7,491000175E0
8,848379014E0	8,295000345E-2	4,699950218E0	6,256050110E0
8,868542490E0	-8,239500523E-1	5,305950165E0	6,426000118E0
8,888706111E0	-2,041949987E0	5,659950256E0	8,039999962E0
8,908869574E0	-2,713050127E0	5,350950241E0	9,675000191E0
8,929033195E0	-2,445000172E0	4,690050125E0	1,128405094E1
8,949196892E0	-1,747950077E0	4,141950130E0	1,122600079E1
8,969360568E0	-1,201950073E0	4,036950111E0	1,045800018E1
8,989524044E0	-8,719500303E-1	4,494000435E0	8,920950890E0
9,009687647E0	-9,820500612E-1	5,071050167E0	7,257000446E0
9,029851337E0	-1,462950110E0	5,614950180E0	6,502050400E0
9,050014785E0	-2,197950125E0	5,578950405E0	7,315950394E0
9,070178411E0	-2,368050098E0	5,332050323E0	8,266950607E0
9,090341886E0	-2,124000072E0	4,839000225E0	8,746050835E0
9,110505568E0	-1,774050117E0	4,477050304E0	8,614050865E0
9,130669188E0	-1,710000038E0	4,480050087E0	8,587950706E0
9,150832876E0	-1,468050122E0	4,485000134E0	8,511000633E0
9,170996308E0	-1,663950086E0	4,717050076E0	7,738050461E0
9,191159926E0	-2,004000187E0	4,992000103E0	7,494000435E0
9,211323372E0	-1,872000098E0	4,983000278E0	8,011050224E0
9,231487049E0	-1,192050099E0	4,564050198E0	8,098950386E0
9,251650649E0	-4,500000179E-1	4,113000393E0	8,538000107E0
9,271814084E0	-3,540000021E-1	3,948000193E0	9,847050667E0
9,291977704E0	-3,379500210E-1	4,018050194E0	1,043100071E1
9,312141385E0	-5,959500074E-1	4,654950142E0	8,905950546E0
9,332305082E0	-1,432050109E0	5,533050060E0	8,204999924E0
9,352468526E0	-2,119050026E0	5,818050385E0	8,605050087E0
9,372632142E0	-2,290950060E0	5,560050488E0	9,459000587E0
9,392795603E0	-1,839000106E0	5,004000187E0	1,013205051E1
9,412959296E0	-1,021950006E0	4,699950218E0	9,511950493E0
9,433122911E0	-7,950000167E-1	4,900950432E0	8,329050064E0
9,453286373E0	-9,840000272E-1	5,244000435E0	7,462950230E0
9,473450065E0	-1,543950081E0	5,329950333E0	7,561050415E0
9,493613681E0	-1,714050055E0	5,164950371E0	8,133000374E0
9,513777137E0	-1,438950062E0	4,894050121E0	8,008049965E0
9,533940777E0	-1,068000078E0	5,017950058E0	7,065000534E0
9,554104469E0	-1,432050109E0	5,256000042E0	7,102950573E0
9,574268164E0	-1,738050103E0	5,064000130E0	8,206950188E0
9,594431573E0	-1,719000101E0	4,377000332E0	9,282000542E0
9,614595056E0	-1,590000033E0	3,987000227E0	9,826050758E0
9,634758770E0	-1,225950003E0	3,847950220E0	8,775000572E0
9,654922375E0	-8,760000467E-1	4,003050327E0	7,435950279E0
9,675086159E0	-7,849500179E-1	4,390950203E0	6,358950138E0
9,695249490E0	-6,730500460E-1	4,717050076E0	5,758050442E0
9,715413212E0	-7,500000596E-1	5,007000446E0	5,899050236E0
9,735576680E0	-7,470000386E-1	4,783950329E0	7,252050400E0
9,755740291E0	-3,070500195E-1	4,480050087E0	8,013000488E0
9,775903972E0	2,505000122E-2	4,164000034E0	8,959050179E0
9,796067386E0	-8,400000632E-2	3,970050097E0	1,026405048E1
9,816231007E0	-3,229500055E-1	3,826050282E0	1,166895008E1
9,836394688E0	-1,530000120E-1	3,826050282E0	1,090095043E1
9,856558140E0	-6,495000422E-2	4,350000381E0	9,198000908E0
9,876721847E0	-2,179500163E-1	4,992000103E0	7,618050575E0
9,896885219E0	-3,229500055E-1	5,530950069E0	6,766050339E0
9,917048805E0	-4,050000310E-1	5,683950424E0	6,462000370E0
9,937212476E0	-7,020000219E-1	5,610000134E0	7,194000244E0
9,957375929E0	-1,093950033E0	5,554950237E0	8,335950851E0
9,977539635E0	-1,378950119E0	5,361000061E0	9,154950142E0
9,997703249E0	-1,516050100E0	5,109000206E0	9,864000320E0
1,001786675E1	-1,506000042E0	4,774050236E0	1,079295063E1
1,003803046E1	-1,345950007E0	4,565999985E0	1,095600033E1
1,005819406E1	-8,410500288E-1	4,414950371E0	9,874050140E0
1,007835753E1	-4,600500166E-1	4,405950069E0	9,070950508E0
1,009852122E1	-3,619500101E-1	4,542000294E0	8,410950661E0
1,011868461E1	-5,890500546E-1	4,621050358E0	7,726050377E0
1,013884823E1	-1,144950032E0	4,498950005E0	8,049000740E0
1,015901192E1	-1,317000031E0	4,288050175E0	8,887050629E0
1,017917537E1	-1,036949992E0	3,996000290E0	8,607000351E0
1,019933905E1	-5,820000172E-1	3,924000263E0	7,992000580E0
1,021950263E1	-3,469500244E-1	4,317000389E0	7,438950539E0
1,023966631E1	-4,669500291E-1	4,711950302E0	7,051050186E0
1,025982980E1	-8,620500565E-1	5,104950428E0	6,415950298E0
1,027999317E1	-1,330950022E0	5,605050087E0	6,285000324E0
1,030015686E1	-1,863000035E0	5,575950146E0	7,861950397E0
1,032032049E1	-2,028000116E0	5,092950344E0	9,782999992E0
1,034048418E1	-1,840950131E0	4,434000015E0	1,151595020E1
1,036064766E1	-1,719000101E0	4,140000343E0	1,173900032E1
1,038081127E1	-1,801050067E0	4,303050041E0	1,081905079E1
1,040097475E1	-1,863000035E0	4,674000263E0	9,756000519E0
1,042113845E1	-1,884000063E0	5,052000046E0	8,296050072E0
1,044130205E1	-1,972950101E0	5,302950382E0	7,423950195E0
1,046146551E1	-2,590950012E0	5,044950008E0	8,025000572E0
1,048162913E1	-2,440050125E0	4,261950016E0	8,953950882E0
1,050179282E1	-1,570950031E0	3,747000217E0	8,332050323E0
1,052195628E1	-8,569500446E-1	3,795000076E0	7,588950157E0
1,054211990E1	-5,890500546E-1	4,522950172E0	6,085950375E0
1,056228358E1	-7,900500298E-1	5,236050129E0	4,957950115E0
1,058244702E1	-1,333950043E0	5,839950085E0	4,944000244E0
1,060261072E1	-2,074050188E0	5,799000263E0	6,720000267E0
1,062277432E1	-2,703000069E0	5,176950455E0	9,292050362E0
1,064293778E1	-2,422950029E0	4,279050350E0	1,146600056E1
1,066310147E1	-1,600050092E0	3,996000290E0	1,200405025E1
1,068326508E1	-1,006049991E0	4,144950390E0	1,090305042E1
1,070342854E1	-1,189950109E0	4,638000011E0	9,591000557E0
1,072359216E1	-1,482000113E0	4,819950104E0	9,534000397E0
1,074375587E1	-1,285950065E0	4,588050365E0	9,285000801E0
1,076391933E1	-1,048950076E0	4,567950249E0	8,563950539E0
1,078408272E1	-1,144950032E0	4,434000015E0	8,490000725E0
1,080424665E1	-9,220500588E-1	4,321950436E0	8,566050529E0
1,082441004E1	-5,050500035E-1	3,928950071E0	8,406000137E0
1,084457350E1	-4,980000257E-1	3,793050289E0	8,527950287E0
1,086473712E1	-6,660000086E-1	3,796950102E0	8,463000298E0
1,088490083E1	-1,116000056E0	4,032000065E0	8,475000381E0
1,090506431E1	-1,312050104E0	3,796950102E0	8,491950035E0
1,092522791E1	-1,378950119E0	3,615000248E0	8,787000656E0
1,094539160E1	-1,087050080E0	3,859950066E0	8,518050194E0
1,096555503E1	-3,930000067E-1	4,183050156E0	7,642050266E0
1,098571843E1	2,190000117E-1	4,675950050E0	6,142950058E0
1,100588212E1	-5,839500427E-1	5,184000015E0	6,325050354E0
1,102604573E1	-2,220000029E0	5,928000450E0	7,848000526E0
1,104620941E1	-3,430950165E0	6,115050316E0	9,828000069E0
1,106637286E1	-3,208050251E0	5,539950371E0	1,104900074E1
1,108653647E1	-2,410950184E0	4,966050148E0	1,164105034E1
1,110669996E1	-1,839000106E0	4,758000374E0	1,154700089E1
1,112686365E1	-1,671000123E0	4,780950069E0	1,087695026E1
1,114702727E1	-1,531950116E0	4,741050243E0	9,097949982E0
1,116719074E1	-1,750050068E0	4,791000366E0	7,864950180E0
1,118735432E1	-2,185950041E0	4,975050449E0	7,084050179E0
1,120751800E1	-2,562000036E0	5,446950436E0	7,063050270E0
1,122768145E1	-2,425950050E0	5,089950085E0	7,111050129E0
1,124784509E1	-2,137950182E0	5,050050259E0	6,390000343E0
1,126800855E1	-1,602000117E0	4,774050236E0	6,756000519E0
1,128817217E1	-1,221000075E0	4,719000340E0	6,640950203E0
1,130833584E1	-1,051050067E0	4,816950321E0	6,993000507E0
1,132849931E1	-1,522950053E0	4,995000362E0	7,534050465E0
1,134866300E1	-1,999050140E0	5,197950363E0	8,784000397E0
1,136882642E1	-1,990050077E0	4,936950207E0	9,931050301E0
1,138899005E1	-1,663950086E0	4,611000061E0	1,016295052E1
1,140915374E1	-1,201950073E0	4,570950031E0	9,189000130E0
1,142931720E1	-1,033950090E0	4,693050385E0	8,554050446E0
1,144948087E1	-1,175999999E0	4,456050396E0	8,335950851E0
1,146964449E1	-1,485000014E0	4,453050137E0	8,772000313E0
1,148980795E1	-1,437000036E0	4,402950287E0	8,650050163E0
1,150997157E1	-1,324050069E0	4,530000210E0	7,483950138E0
1,153013526E1	-1,339050055E0	4,690050125E0	7,489050388E0
1,155029871E1	-1,474950075E0	4,765050411E0	8,284049988E0
1,157046232E1	-1,659000039E0	4,434000015E0	8,578050613E0
1,159062578E1	-1,647000074E0	4,012950420E0	9,628950119E0
1,161078939E1	-1,552050114E0	3,754050255E0	1,063695049E1
1,163095285E1	-1,519950032E0	3,951000214E0	1,021800041E1
1,165111656E1	-1,264050007E0	4,384050369E0	8,683950424E0
1,167127996E1	-1,161000013E0	4,470000267E0	7,858050346E0
1,169144364E1	-1,243050098E0	4,771950245E0	7,551000595E0
1,171160726E1	-1,528050065E0	5,071050167E0	7,417050362E0
1,173177072E1	-1,659000039E0	5,080950260E0	7,539000511E0
1,175193435E1	-1,504050016E0	4,930050373E0	7,837950230E0
1,177209780E1	-1,554000020E0	4,966050148E0	7,684950352E0
1,179226151E1	-1,710000038E0	4,932000160E0	7,591950417E0
1,181242511E1	-2,241000175E0	5,089950085E0	8,341050148E0
1,183258857E1	-2,317950010E0	4,951050282E0	9,390000343E0
1,185275227E1	-1,896000147E0	4,729050159E0	9,487950325E0
1,187291589E1	-1,609050035E0	4,804950237E0	8,712000847E0
1,189307934E1	-1,884000063E0	5,109000206E0	8,272050858E0
1,191324295E1	-2,347050190E0	5,521050453E0	8,758049965E0
1,193340640E1	-2,404050112E0	5,227050304E0	9,759000778E0
1,195357002E1	-2,086050034E0	4,932000160E0	9,174000740E0
1,197373370E1	-1,758000135E0	4,591950417E0	8,881950378E0
1,199389708E1	-1,461000085E0	4,546950340E0	8,302950859E0
1,201406078E1	-1,449000120E0	4,603950024E0	7,771050453E0
1,203422423E1	-1,426950097E0	4,804950237E0	7,278000355E0
1,205438784E1	-1,305000067E0	5,076000214E0	7,198950291E0
1,207455155E1	-1,426950097E0	5,241000175E0	7,048050404E0
1,209471502E1	-1,939050078E0	5,278950214E0	8,253000259E0
1,211487862E1	-2,575950146E0	5,313000202E0	8,590050697E0
1,213504208E1	-3,127050161E0	5,101950169E0	1,022595024E1
1,215520571E1	-3,217950106E0	4,798050404E0	1,134600067E1
1,217536918E1	-2,362950087E0	4,261950016E0	1,014705086E1
1,219553278E1	-1,959000111E0	4,152000427E0	8,899050713E0
1,221569625E1	-1,968000054E0	4,374000072E0	7,897950172E0
1,223585995E1	-1,554000020E0	4,458000183E0	7,254000187E0
1,225602357E1	-1,080000043E0	4,570950031E0	6,334950447E0
1,227618703E1	-1,197000027E0	4,948950291E0	5,727000237E0
1,229635074E1	-1,662000060E0	5,050050259E0	6,469050407E0
1,231651438E1	-2,538000107E0	5,344050407E0	7,510050297E0
1,233667786E1	-2,746050119E0	5,064000130E0	8,511000633E0
1,235684147E1	-2,742000103E0	4,759950161E0	9,073950768E0
1,237700517E1	-2,706000090E0	4,762050152E0	9,634050369E0
1,239716855E1	-2,233950138E0	4,630950451E0	9,688950539E0
1,241733223E1	-1,711950064E0	4,789050102E0	8,154000282E0
1,243749569E1	-1,875000119E0	4,860000134E0	7,953000546E0
1,245765932E1	-2,136000156E0	5,040000439E0	8,145000458E0
1,247782276E1	-2,053950071E0	4,975050449E0	8,602050781E0
1,249798636E1	-2,053950071E0	4,939050198E0	8,200050354E0
1,251814982E1	-2,586000204E0	4,887000084E0	9,153000832E0
1,253831343E1	-2,824950218E0	4,939050198E0	9,807000160E0
1,255847712E1	-2,962050200E0	5,137950420E0	9,325050354E0
1,257864056E1	-2,746050119E0	4,927950382E0	8,925000191E0
1,259880426E1	-2,253000021E0	4,707000256E0	8,527950287E0
1,261896764E1	-1,978050113E0	4,389000416E0	8,131050110E0
1,263913127E1	-1,825050116E0	4,531949997E0	7,870050430E0
1,265929472E1	-1,681050062E0	4,758000374E0	7,339950562E0
1,267945836E1	-1,813050032E0	4,750050068E0	7,402950287E0
1,269962204E1	-2,452050209E0	4,912950039E0	8,776950836E0
1,271978550E1	-2,710050106E0	4,729050159E0	1,021395016E1
1,273994911E1	-1,651950121E0	4,405950069E0	9,459000587E0
1,276011256E1	-9,820500612E-1	4,614000320E0	7,189950466E0
1,278027628E1	-1,504050016E0	4,924950123E0	7,683000565E0
1,280043988E1	-2,121000051E0	4,942050457E0	8,502000809E0
1,282060332E1	-2,598000050E0	5,004000187E0	9,307950020E0
1,284076692E1	-2,302950144E0	4,546950340E0	9,418950081E0
1,286093037E1	-2,016000032E0	4,417950153E0	8,607000351E0
1,288109401E1	-1,623000026E0	4,528050423E0	8,025000572E0
1,290125748E1	-1,236000061E0	4,698000431E0	7,309050560E0
1,292142118E1	-1,249950051E0	5,320050240E0	6,790050507E0
1,294158480E1	-1,305000067E0	5,112000465E0	6,439950466E0
1,296174826E1	-2,137950182E0	5,125950336E0	7,386000156E0
1,298191188E1	-2,995050192E0	5,454000473E0	9,604950905E0
1,300207559E1	-2,265000105E0	5,197950363E0	9,708000183E0
1,302223905E1	-1,381950021E0	4,899000168E0	7,825950146E0
1,304240269E1	-1,999050140E0	4,959000111E0	8,197950363E0
1,306256637E1	-2,880000114E0	5,052000046E0	9,490050316E0
1,308272983E1	-2,098050117E0	4,992000103E0	8,855999947E0
1,310289345E1	-1,462950110E0	4,872000217E0	7,210950375E0
1,312305692E1	-1,864950061E0	5,394000053E0	6,700950146E0
1,314322053E1	-2,770050049E0	5,493000031E0	8,503950119E0
1,316338398E1	-3,220050097E0	5,245950222E0	9,817950249E0
1,318354766E1	-2,824950218E0	4,837050438E0	1,056300068E1
1,320371130E1	-2,019000053E0	4,315050125E0	9,574050903E0
1,322387474E1	-1,791000128E0	4,567950249E0	8,362950325E0
1,324403812E1	-2,169000149E0	4,699950218E0	8,889000893E0
1,326420175E1	-1,779000044E0	4,350000381E0	8,832000732E0
1,328436542E1	-1,180950046E0	4,350000381E0	7,381050587E0
1,330452881E1	-1,057950020E0	4,623000145E0	6,406950474E0
1,332469228E1	-1,252050042E0	5,104950428E0	5,824950218E0
1,334485590E1	-1,339050055E0	5,167050362E0	7,027050495E0
1,336501958E1	-1,333950043E0	5,293950081E0	7,158000469E0
1,338518297E1	-1,446000099E0	5,362950325E0	7,470000267E0
1,340534646E1	-2,452050209E0	5,074050426E0	8,929950714E0
1,342551016E1	-3,546000242E0	4,381950378E0	1,236600018E1
1,344567376E1	-3,124950171E0	3,496050119E0	1,350600052E1
1,346583723E1	-1,729050040E0	3,016950130E0	1,023705006E1
1,348600086E1	-6,559500098E-1	3,430950165E0	7,623000145E0
1,350616433E1	9,195000678E-2	4,236000061E0	5,590050220E0
1,352632797E1	2,220000178E-1	5,227050304E0	4,090950012E0
1,354649140E1	-1,438950062E0	6,117000103E0	5,122950077E0
1,356665498E1	-3,844950199E0	6,627000332E0	8,899050713E0
1,358681868E1	-4,872000217E0	6,213000298E0	1,150395012E1
1,360698213E1	-4,104000092E0	5,179050446E0	1,237305069E1
1,362714574E1	-3,298950195E0	4,590000153E0	1,188705063E1
1,364730919E1	-2,731950045E0	4,558950424E0	9,901950836E0
1,366747281E1	-1,342950106E0	4,555950165E0	8,008049965E0
1,368763651E1	-5,560500026E-1	4,930050373E0	5,410950184E0
1,370779996E1	-4,620000124E-1	5,323050022E0	3,522000074E0
1,372796335E1	-2,689050198E0	5,296050072E0	5,833950043E0
1,374812704E1	-4,386000156E0	5,076000214E0	9,253050804E0
1,376829065E1	-3,915000200E0	4,282950401E0	1,079100037E1
1,378845413E1	-1,657050133E0	3,637050152E0	7,812000275E0
1,380861774E1	-5,320500135E-1	4,117949963E0	5,727000237E0
1,382878120E1	-1,390500069E-1	5,086050034E0	4,333050251E0
1,384894489E1	-4,240500331E-1	5,731950283E0	3,340050220E0
1,386910827E1	-1,980000138E0	6,337950230E0	6,451950073E0
1,388927188E1	-3,709050179E0	6,448050499E0	9,567000389E0
1,390943536E1	-3,892950296E0	5,940000057E0	1,143195057E1
1,392959900E1	-3,433950186E0	5,550000191E0	1,156395054E1
1,394976269E1	-3,193950176E0	5,842050076E0	1,028100014E1
1,396992608E1	-2,919000149E0	5,940000057E0	8,833950043E0
1,399008974E1	-2,611950159E0	5,880000114E0	7,888950348E0
1,401025323E1	-2,502000093E0	5,586000443E0	7,870050430E0
1,403041663E1	-2,602950096E0	5,374950409E0	7,957950592E0
1,405058029E1	-2,512050152E0	5,161950111E0	7,564950466E0
1,407074368E1	-2,098050117E0	5,016000271E0	7,479000568E0
1,409090737E1	-1,867950082E0	4,858050346E0	7,134000301E0
1,411107097E1	-1,513050079E0	4,846050262E0	7,189950466E0
1,413123446E1	-1,477050066E0	5,026050091E0	7,017000198E0
1,415139809E1	-1,453050017E0	5,248050213E0	6,841950417E0
1,417156154E1	-2,145000219E0	5,464050293E0	7,198950291E0
1,419172514E1	-2,737050056E0	5,617050171E0	8,157000542E0
1,421188860E1	-2,896950245E0	5,454000473E0	8,812950134E0
1,423205224E1	-2,133000135E0	5,136000156E0	8,449049950E0
1,425221570E1	-1,743000031E0	5,251050472E0	7,813950539E0
1,427237940E1	-1,906050086E0	5,493000031E0	7,666050434E0
1,429254303E1	-1,975050092E0	5,634000301E0	7,132050514E0
1,431270642E1	-2,335050106E0	5,596050262E0	7,591950417E0
1,433286986E1	-2,641050100E0	5,587950230E0	8,185950279E0
1,435303347E1	-2,677050114E0	5,392050266E0	8,683950424E0
1,437319726E1	-2,265000105E0	5,164950371E0	8,590050697E0
1,439336066E1	-1,804950118E0	5,028000355E0	7,956000328E0
1,441352428E1	-1,566000104E0	5,131050110E0	7,390950203E0
1,443368774E1	-1,753050089E0	5,260050297E0	7,378950119E0
1,445385135E1	-2,203050137E0	5,434950352E0	7,663950443E0
1,447401479E1	-2,574000120E0	5,527950287E0	7,836000443E0
1,449417848E1	-2,860950232E0	5,587950230E0	7,984050274E0
1,451434185E1	-3,187050104E0	5,488050461E0	8,676000595E0
1,453450544E1	-3,132000208E0	5,500050068E0	9,379950523E0
1,455466890E1	-2,370000124E0	5,029950142E0	8,881950378E0
1,457483253E1	-1,297950029E0	4,522950172E0	7,956000328E0
1,459499596E1	-1,032000065E0	4,219050407E0	7,381050587E0
1,461515957E1	-1,365000010E0	4,405950069E0	7,687950134E0
1,463532302E1	-1,816950083E0	4,693050385E0	7,750050545E0
1,465548665E1	-1,686000109E0	5,191050053E0	7,338000298E0
1,467565009E1	-1,285950065E0	5,466000080E0	6,748950481E0
1,469581371E1	-8,719500303E-1	5,988000393E0	5,640000343E0
1,471597719E1	-1,456050038E0	6,405000210E0	5,596950054E0
1,473614079E1	-3,172950268E0	6,747000217E0	8,401050568E0
1,475630448E1	-4,804950237E0	6,295050144E0	1,275105095E1
1,477646793E1	-5,023050308E0	5,773050308E0	1,383600044E1
1,479663130E1	-4,309950352E0	5,493000031E0	1,106100082E1
1,481679491E1	-3,694950104E0	5,337000370E0	8,929950714E0
1,483695838E1	-2,892000198E0	4,956000328E0	7,543950558E0
1,485712200E1	-1,767000079E0	4,291050434E0	6,150000095E0
1,487728547E1	-1,006049991E0	4,084949970E0	5,188050270E0
1,489744918E1	-8,689500690E-1	4,537050247E0	4,300050259E0
1,491761257E1	-1,224000096E0	5,104950428E0	4,137000084E0
1,493777620E1	-8,359500170E-1	5,373000145E0	5,197950363E0
1,495793967E1	-7,830000520E-1	5,329950333E0	6,250950336E0
1,497810328E1	-1,312050104E0	5,502000332E0	6,976050377E0
1,499826697E1	-2,229000092E0	5,337000370E0	8,803050041E0
1,501843037E1	-2,983050108E0	4,816950321E0	1,138905048E1
1,503859404E1	-2,950050116E0	4,482000351E0	1,205505085E1
1,505875742E1	-2,332050085E0	4,729050159E0	9,571950912E0
1,507892085E1	-1,849050045E0	5,161950111E0	6,859050274E0
1,509908454E1	-1,738050103E0	5,908950329E0	5,233050346E0
1,511924793E1	-2,287050009E0	6,022050381E0	6,019050121E0
1,513941163E1	-2,835000038E0	6,073950291E0	7,731000423E0
1,515957501E1	-2,899950027E0	5,698050499E0	8,857950211E0
1,517973864E1	-2,992950201E0	5,253000259E0	1,001205063E1
1,519990214E1	-3,076950073E0	5,217000484E0	1,069995022E1
1,522006577E1	-2,683950186E0	4,780950069E0	1,052205086E1
1,524022922E1	-1,978050113E0	4,561050415E0	9,522000313E0
1,526039284E1	-1,707000136E0	4,651950359E0	8,314949989E0
1,528055631E1	-1,449000120E0	4,801050186E0	7,483950138E0
1,530071994E1	-6,300000548E-1	4,968000412E0	6,364050388E0
1,532088341E1	5,205000192E-2	4,935000420E0	6,112050056E0
1,534104700E1	-1,560000032E-1	4,599000454E0	7,206000328E0
1,536121046E1	-1,291050076E0	4,293000221E0	9,136050224E0
1,538137405E1	-2,545050144E0	4,165950298E0	1,155000019E1
1,540153748E1	-2,926050186E0	4,221000195E0	1,171005058E1
1,542170110E1	-2,634000063E0	4,189949989E0	9,979050636E0
1,544186456E1	-2,083050013E0	4,585050106E0	7,684950352E0
1,546202816E1	-1,777050138E0	5,157000065E0	5,866050243E0
1,548219184E1	-1,779000044E0	5,482950211E0	4,692000389E0
1,550235522E1	-2,538000107E0	5,839950085E0	4,810050011E0
1,552251867E1	-3,912000179E0	5,361000061E0	7,546050549E0
1,554268229E1	-4,288050175E0	4,771950245E0	1,032105064E1
1,556284599E1	-2,920950174E0	3,976950169E0	1,039605045E1
1,558300937E1	-1,104000092E0	3,831000090E0	8,293050766E0
1,560317309E1	-8,719500303E-1	4,540050030E0	6,972000122E0
1,562333647E1	-1,446000099E0	5,469000340E0	6,438000202E0
1,564349994E1	-2,848950148E0	5,767950058E0	8,289000511E0
1,566366353E1	-3,583950281E0	5,325000286E0	1,037895012E1
1,568382699E1	-3,589050055E0	4,686000347E0	1,125000095E1
1,570399037E1	-3,340050220E0	4,759950161E0	1,071900082E1
1,572415407E1	-3,084000111E0	5,169000149E0	9,032999992E0
1,574431746E1	-2,730000019E0	5,221950054E0	8,200050354E0
1,576448106E1	-2,551950216E0	4,911000252E0	8,133000374E0
1,578464477E1	-2,172000170E0	4,446000099E0	8,652000427E0
1,580480817E1	-1,666950107E0	4,000950336E0	8,530050278E0
1,582497161E1	-1,468050122E0	3,970050097E0	7,507950306E0
1,584513501E1	-1,951050043E0	3,883950233E0	7,953000546E0
1,586529863E1	-2,088000059E0	4,032000065E0	8,535000801E0
1,588546211E1	-1,594950080E0	4,105950356E0	7,585050583E0
1,590562578E1	-1,353000045E0	4,611000061E0	6,142950058E0
1,592578919E1	-1,609050035E0	5,121000290E0	5,050950050E0
1,594595281E1	-3,055050135E0	5,979000092E0	6,081000328E0
1,596611622E1	-4,123050213E0	6,277950287E0	8,290950775E0
1,598627985E1	-4,441950321E0	5,533050060E0	1,016295052E1
1,600644332E1	-4,429950237E0	4,345950127E0	1,186605072E1
1,602660691E1	-4,212000370E0	3,642000198E0	1,308195019E1
1,604677037E1	-2,521050215E0	3,108000040E0	1,133205032E1
1,606693398E1	-9,790500402E-1	3,370950222E0	7,549050331E0
1,608709746E1	4,800000191E-1	4,315050125E0	4,009950161E0
1,610726106E1	1,687050104E0	4,987050056E0	3,130950212E0
1,612742454E1	8,940000534E-1	3,867000103E0	6,667950153E0
1,614758793E1	-9,769500494E-1	3,757050276E0	9,358950615E0
1,616775163E1	-3,358950138E0	4,777050018E0	1,064700031E1
1,618791526E1	-5,584050179E0	5,868000507E0	1,147995090E1
1,620807872E1	-5,313000202E0	5,454000473E0	1,216995049E1
1,622824233E1	-3,835950136E0	4,381950378E0	1,108995056E1
1,624840579E1	-2,718000174E0	4,051050186E0	8,947050095E0
1,626856918E1	-1,975050092E0	4,173000336E0	6,993000507E0
1,628873280E1	-1,609050035E0	4,611000061E0	5,569050312E0
1,630889627E1	-1,852950096E0	5,155050278E0	5,118000031E0
1,632905990E1	-2,602950096E0	5,401950359E0	6,093000412E0
1,634922359E1	-3,304050207E0	5,430000305E0	7,606050491E0
1,636938672E1	-3,268050194E0	5,430000305E0	8,515950203E0
1,638955039E1	-2,602950096E0	5,053950310E0	9,064050674E0
1,640971401E1	-2,344050169E0	4,975050449E0	9,280050278E0
1,642987750E1	-2,955000162E0	5,173950195E0	1,017300034E1
1,645004121E1	-3,501000166E0	4,837050438E0	1,137000084E1
1,647020459E1	-2,979000092E0	3,934050083E0	1,137195015E1
1,649036799E1	-2,133000135E0	3,760950089E0	8,937000275E0
1,651053161E1	-1,357950091E0	3,919950247E0	7,009950161E0
1,653069508E1	-1,012950063E0	4,249950409E0	5,475000381E0
1,655085869E1	-1,066050053E0	4,690050125E0	5,521050453E0
1,657102216E1	-1,324050069E0	4,915950298E0	5,877000332E0
1,659118579E1	-1,405950069E0	4,896000385E0	6,696000099E0
1,661134915E1	-1,863000035E0	5,032950401E0	7,639950275E0
1,663151286E1	-1,779000044E0	4,606950283E0	9,651000023E0
1,665167633E1	-2,365950108E0	3,619950056E0	1,306305027E1
1,667183992E1	-2,766000032E0	3,841050148E0	1,244505024E1
1,669200328E1	-2,290950060E0	4,578000069E0	9,382950783E0
1,671216674E1	-2,056950092E0	4,899000168E0	7,837950230E0
1,673233037E1	-2,176950216E0	5,133000374E0	7,764000416E0
1,675249383E1	-2,392050028E0	5,136000156E0	7,972050190E0
1,677265745E1	-2,335050106E0	4,807950020E0	7,963050365E0
1,679282091E1	-2,335050106E0	4,848000050E0	8,065950394E0
1,681298429E1	-2,121000051E0	4,975050449E0	7,564950466E0
1,683314791E1	-1,729050040E0	4,831950188E0	7,494000435E0
1,685331157E1	-1,932000041E0	4,659000397E0	7,825950146E0
1,687347502E1	-2,128950119E0	4,225950241E0	8,617050171E0
1,689363863E1	-1,915950060E0	4,006050110E0	8,581050873E0
1,691380209E1	-1,888950109E0	4,054049969E0	8,338950157E0
1,693396545E1	-1,975050092E0	4,519950390E0	7,872000217E0
1,695412908E1	-1,810050130E0	4,798050404E0	7,399950504E0
1,697429254E1	-2,111999989E0	4,995000362E0	7,606050491E0
1,699445617E1	-2,215050220E0	4,813050270E0	8,832000732E0
1,701461961E1	-2,217000008E0	4,594950199E0	9,442950249E0
1,703478300E1	-2,251049995E0	4,420050144E0	1,032105064E1
1,705494663E1	-2,527950048E0	4,303050041E0	1,092495060E1
1,707511012E1	-2,026050091E0	4,096950054E0	1,034295082E1
1,709527373E1	-1,444050074E0	4,080000401E0	8,679000854E0
1,711543742E1	-1,333950043E0	4,255050182E0	7,791000366E0
1,713560078E1	-1,351050019E0	4,474950314E0	7,033950329E0
1,715576424E1	-1,771950126E0	4,422000408E0	7,245000362E0
1,717592784E1	-1,707000136E0	4,635000229E0	7,144050121E0
1,719609131E1	-1,609050035E0	4,285950184E0	7,069950104E0
1,721625495E1	-1,792950034E0	4,429050446E0	7,129950523E0
1,723641840E1	-1,875000119E0	4,762050152E0	7,893000603E0
1,725658180E1	-1,626000047E0	4,639950275E0	8,358000755E0
1,727674551E1	-2,011049986E0	4,669050217E0	8,395950317E0
1,729690892E1	-3,036000252E0	4,894050121E0	9,378000259E0
1,731707259E1	-3,153000116E0	4,714050293E0	1,038600063E1
1,733723596E1	-2,509050131E0	4,072950363E0	1,024695015E1
1,735739965E1	-1,783950090E0	4,051050186E0	8,997000694E0
1,737756312E1	-1,759950042E0	4,603950024E0	8,085000038E0
1,739772650E1	-1,944000125E0	4,966050148E0	7,791000366E0
1,741789011E1	-1,966050148E0	4,837050438E0	7,900950432E0
1,743805357E1	-2,053950071E0	4,699950218E0	7,968000412E0
1,745821719E1	-2,121000051E0	5,191050053E0	7,513050556E0
1,747838065E1	-1,984950066E0	5,050050259E0	7,672950268E0
1,749854424E1	-1,872000098E0	5,119050026E0	7,834050179E0
1,751870759E1	-2,232000113E0	5,101950169E0	8,686050415E0
1,753887107E1	-2,325000048E0	4,887000084E0	8,788949966E0
1,755903469E1	-2,538000107E0	5,068950176E0	8,752950668E0
1,757919813E1	-2,478000164E0	4,726050377E0	9,253050804E0
1,759936172E1	-2,164950132E0	4,522950172E0	8,968950272E0
1,761952518E1	-1,558950067E0	4,482000351E0	7,968000412E0
1,763968856E1	-1,450950027E0	4,510950089E0	7,378950119E0
1,765985215E1	-1,597050071E0	4,441050053E0	7,849950314E0
1,768001561E1	-1,623000026E0	4,494000435E0	8,314949989E0
1,770017921E1	-1,879950047E0	4,654950142E0	8,442000389E0
1,772034266E1	-2,095050097E0	4,576050282E0	9,189000130E0
1,774050630E1	-2,385000229E0	4,561050415E0	9,486000061E0
1,776066970E1	-2,433000088E0	4,381950378E0	9,616950035E0
1,778083315E1	-2,113950014E0	4,015050411E0	9,148050308E0
1,780099676E1	-1,731000066E0	3,907950163E0	7,924950600E0
1,782116022E1	-1,438950062E0	3,790050268E0	7,213050365E0
1,784132386E1	-1,576050043E0	3,987000227E0	6,732000351E0
1,786148733E1	-1,770000100E0	4,204050064E0	6,991050243E0
1,788165096E1	-1,573050022E0	4,168950081E0	6,913950443E0
1,790181444E1	-1,453050017E0	4,390950203E0	7,174950123E0
1,792197804E1	-1,417950034E0	4,393949986E0	8,182950020E0
1,794214142E1	-1,224000096E0	4,494000435E0	8,310000420E0
1,796230512E1	-1,837050080E0	4,840950012E0	9,193950653E0
1,798246859E1	-2,923950195E0	4,831950188E0	1,069005013E1
1,800263200E1	-3,043050051E0	4,774050236E0	1,185105038E1
1,802279564E1	-2,539950132E0	4,317000389E0	1,238805103E1
1,804295910E1	-1,365000010E0	4,221000195E0	9,732000351E0
1,806312273E1	-1,366950035E0	4,494000435E0	8,581050873E0
1,808328621E1	-1,333950043E0	4,225950241E0	8,812950134E0
1,810344959E1	-1,753050089E0	4,285950184E0	9,076050758E0
1,812361322E1	-1,987050056E0	4,282950401E0	8,857950211E0
1,814377667E1	-1,963050127E0	4,149000168E0	8,787000656E0
1,816393998E1	-2,116950035E0	4,212000370E0	8,953950882E0
1,818410368E1	-2,161950111E0	4,036950111E0	8,695950508E0
1,820426714E1	-3,292050123E0	4,848000050E0	9,294000626E0
1,822443051E1	-2,377950191E0	3,960000277E0	9,016050339E0
1,824459411E1	-2,332050085E0	4,245000362E0	8,013000488E0
1,826475755E1	-2,172000170E0	4,762050152E0	7,096050262E0
1,828492116E1	-2,587950230E0	5,164950371E0	6,865950108E0
1,830508462E1	-2,950050116E0	5,409000397E0	7,582050323E0
1,832524801E1	-3,658950090E0	5,227050304E0	8,928000450E0
1,834541159E1	-3,562950134E0	4,389000416E0	1,047495079E1
1,836557506E1	-2,488050222E0	4,006050110E0	1,080000019E1
1,838573846E1	-1,734000087E0	3,883950233E0	8,923050880E0
1,840590215E1	-2,169000149E0	4,285950184E0	8,157000542E0
1,842606553E1	-2,506950140E0	4,711950302E0	8,001000404E0
1,844622914E1	-2,500050068E0	4,618950367E0	7,714050293E0
1,846639262E1	-2,137950182E0	4,384050369E0	7,510050297E0
1,848655624E1	-1,585050106E0	4,057950020E0	7,360050201E0
1,850671963E1	-1,378950119E0	4,176000118E0	7,222950459E0
1,852688310E1	-1,603950024E0	4,470000267E0	7,479000568E0
1,854704668E1	-2,040000200E0	4,659000397E0	7,993950367E0
1,856721014E1	-2,229000092E0	4,609050274E0	8,949000359E0
1,858737352E1	-2,167050123E0	4,482000351E0	9,402000427E0
1,860753715E1	-2,080950022E0	4,324050426E0	9,628950119E0
1,862770060E1	-2,323050022E0	4,413000107E0	9,546000481E0
1,864786420E1	-2,227050066E0	4,273950100E0	9,301050186E0
1,866802766E1	-1,912950039E0	3,859950066E0	9,466950417E0
1,868819125E1	-1,546950102E0	3,523950100E0	8,971050262E0
1,870835464E1	-9,220500588E-1	3,493050098E0	8,236050606E0
1,872851811E1	-8,260500431E-1	3,862050295E0	6,948000431E0
1,874868173E1	-1,207050085E0	4,141950130E0	6,732000351E0
1,876884509E1	-1,621050119E0	4,449000359E0	7,434000492E0
1,878900856E1	-1,923000097E0	4,315050125E0	8,818050385E0
1,880917214E1	-1,791000128E0	4,372050285E0	9,604950905E0
1,882933561E1	-1,674000025E0	4,303050041E0	9,732000351E0
1,884949923E1	-1,746000051E0	4,695000172E0	9,418950081E0
1,886966260E1	-1,987050056E0	4,840950012E0	9,727950096E0
1,888982607E1	-1,948950052E0	4,518000126E0	1,015095043E1
1,890998968E1	-1,792950034E0	4,209000111E0	9,622050285E0
1,893015316E1	-1,735950112E0	4,152000427E0	9,213000298E0
1,895031679E1	-1,590000033E0	3,967050076E0	8,758049965E0
1,897048018E1	-1,057950020E0	3,871950150E0	7,915050507E0
1,899064358E1	-9,150000215E-1	3,847950220E0	7,431000233E0
1,901080705E1	-1,257000089E0	4,152000427E0	7,053000450E0
1,903097066E1	-1,779000044E0	4,075050354E0	8,166000366E0
1,905113414E1	-1,849050045E0	3,831000090E0	9,079050064E0
1,907129751E1	-1,398000121E0	3,477000237E0	9,367950439E0
1,909146113E1	-8,880000710E-1	3,478950262E0	8,403000832E0
1,911162458E1	-1,055999994E0	4,044000149E0	8,451000214E0
1,913178815E1	-1,458000064E0	4,350000381E0	8,157000542E0
1,915195162E1	-2,083050013E0	4,408050060E0	9,262950897E0
1,917211523E1	-2,526000023E0	4,012950420E0	1,086000061E1
1,919227862E1	-2,248050213E0	3,514950275E0	1,151595020E1
1,921244209E1	-1,552050114E0	3,373950243E0	9,840000153E0
1,923260547E1	-9,360000491E-1	3,715950251E0	7,771050453E0
1,925276909E1	-1,032000065E0	4,171050072E0	6,703950405E0
1,927293256E1	-1,221000075E0	4,501049995E0	6,672000408E0
1,929309594E1	-1,540050030E0	4,734000206E0	6,826050282E0
1,931325956E1	-1,767000079E0	4,561050415E0	7,585050583E0
1,933342301E1	-1,876950145E0	4,726050377E0	8,224050522E0
1,935358661E1	-2,064000130E0	4,831950188E0	8,875050545E0
1,937375030E1	-1,956000090E0	4,420050144E0	9,289050102E0
1,939391370E1	-2,338950157E0	4,402950287E0	9,862050056E0
1,941407709E1	-2,536050081E0	4,087049961E0	1,103700066E1
1,943424056E1	-1,906050086E0	3,867000103E0	1,063995075E1
1,945440414E1	-1,429950118E0	3,892950296E0	8,116050720E0
1,947456754E1	-1,918050051E0	4,309950352E0	8,085000038E0
1,949473099E1	-2,353950024E0	4,509000301E0	9,172050476E0
1,951489464E1	-2,200050116E0	4,276050091E0	9,237000465E0
1,953505802E1	-1,968000054E0	4,032000065E0	9,024000168E0
1,955522152E1	-2,197950125E0	3,856950283E0	9,568950653E0
1,957538514E1	-2,041949987E0	3,847950220E0	9,591000557E0
1,959554881E1	-1,408050060E0	3,682050228E0	8,391000748E0
1,961571197E1	-1,200000048E0	3,730050087E0	7,194000244E0
1,963587561E1	-1,525050044E0	4,197000027E0	6,948000431E0
1,965603906E1	-1,722000122E0	4,279050350E0	7,687950134E0
1,967620268E1	-2,020950079E0	4,426949978E0	8,296050072E0
1,969636605E1	-2,490000010E0	4,374000072E0	8,892000198E0
1,971652954E1	-2,686950207E0	4,180050373E0	9,943050385E0
1,973669311E1	-2,362950087E0	3,946050167E0	1,050300026E1
1,975685656E1	-1,942050099E0	3,879000187E0	9,426000595E0
1,977702021E1	-1,755000114E0	4,530000210E0	7,960950375E0
1,979718362E1	-2,113950014E0	5,016000271E0	7,330950260E0
1,981734705E1	-2,691000223E0	5,323050022E0	8,230950356E0
1,983751044E1	-3,043050051E0	4,996950150E0	9,703950882E0
1,985767405E1	-2,581050158E0	4,171050072E0	1,041495037E1
1,987783749E1	-2,478000164E0	3,802050114E0	1,085505009E1
1,989800108E1	-2,227050066E0	3,594000101E0	1,014195061E1
1,991816446E1	-1,729050040E0	3,352050066E0	8,668950081E0
1,993832793E1	-1,506000042E0	3,292050123E0	7,288050175E0
1,995849129E1	-1,531950116E0	3,570000172E0	6,636000156E0
1,997865489E1	-1,426950097E0	3,829050064E0	6,268050194E0
1,999881861E1	-1,353000045E0	3,972000122E0	6,055050373E0
2,001898175E1	-1,429950118E0	4,137000084E0	6,037950516E0
2,003914536E1	-1,791000128E0	4,485000134E0	6,196050167E0
2,005930882E1	-2,643000126E0	4,777050018E0	8,451000214E0
2,007947222E1	-3,228000164E0	4,579950333E0	1,079100037E1
2,009963585E1	-3,316050053E0	4,327050209E0	1,285395050E1
2,011979930E1	-3,067050219E0	4,161000252E0	1,256505013E1
2,013996270E1	-2,512050152E0	4,267050266E0	1,078800011E1
2,016012633E1	-2,089950085E0	4,534950256E0	8,961000443E0
2,018028979E1	-1,920000076E0	4,618950367E0	7,648950577E0
2,020045339E1	-1,936950088E0	4,474950314E0	7,350000381E0
2,022061679E1	-2,100000143E0	4,132950306E0	8,212050438E0
2,024078024E1	-1,795950055E0	3,699000120E0	8,059050560E0
2,026094386E1	-1,611000061E0	3,541050196E0	7,936950207E0
2,028110723E1	-1,518000126E0	3,799950123E0	7,045950413E0
2,030127070E1	-1,426950097E0	4,312050343E0	6,385050297E0
2,032143429E1	-1,645050049E0	4,723950386E0	6,181950092E0
2,034159766E1	-2,329950094E0	5,020950317E0	7,197000504E0
2,036176113E1	-3,085950136E0	4,908000469E0	8,842050552E0
2,038192453E1	-3,297000170E0	4,422000408E0	1,074705029E1
2,040208813E1	-3,031050205E0	3,637050152E0	1,183200073E1
2,042225185E1	-2,433000088E0	3,376050234E0	1,098000050E1
2,044241524E1	-1,657050133E0	3,570000172E0	8,692950249E0
2,046257870E1	-1,282950044E0	3,829050064E0	7,024050236E0
2,048274232E1	-1,555950046E0	4,294950008E0	6,301050186E0
2,050290570E1	-2,313000202E0	4,614000320E0	6,778050423E0
2,052306914E1	-2,674950123E0	4,729050159E0	7,960950375E0
2,054323277E1	-2,923950195E0	4,645050049E0	8,932950020E0
2,056339617E1	-2,890050173E0	4,300050259E0	9,688950539E0
2,058355965E1	-2,956950188E0	4,213950157E0	1,081200027E1
2,060372328E1	-3,169950247E0	4,188000202E0	1,108305073E1
2,062388673E1	-3,091050148E0	3,951000214E0	1,101795006E1
2,064405005E1	-2,392050028E0	3,634950161E0	9,782999992E0
2,066421354E1	-1,582950115E0	3,847950220E0	7,989000320E0
2,068437713E1	-1,578000069E0	4,063050270E0	7,060050488E0
2,070454055E1	-1,765050054E0	4,192049980E0	7,690050602E0
2,072470401E1	-1,690050125E0	4,018050194E0	8,463000298E0
2,074486763E1	-1,429950118E0	3,630000114E0	8,656949997E0
2,076503100E1	-1,681050062E0	3,541050196E0	9,028050423E0
2,078519438E1	-1,867950082E0	3,526950121E0	9,519000053E0
2,080535785E1	-2,101950169E0	3,718050241E0	9,349050522E0
2,082552147E1	-2,260050058E0	3,721050262E0	9,106950760E0
2,084568483E1	-2,326950073E0	3,868950129E0	8,578050613E0
2,086584830E1	-2,193000078E0	4,056000233E0	7,813950539E0
2,088601191E1	-1,999050140E0	4,438950062E0	6,531000137E0
2,090617536E1	-2,605050087E0	4,863000393E0	6,493050098E0
2,092633874E1	-3,333000183E0	5,017950058E0	7,960950375E0
2,094650235E1	-3,721050262E0	4,602000237E0	9,024000168E0
2,096666573E1	-3,874050140E0	4,228050232E0	1,010595036E1
2,098682918E1	-3,793050289E0	3,994050264E0	1,077405071E1
2,100699256E1	-3,223050117E0	3,963000298E0	1,037595081E1
2,102715617E1	-2,422950029E0	3,802050114E0	9,106950760E0
2,104731964E1	-1,954050064E0	4,161000252E0	7,933950424E0
2,106748304E1	-1,960950136E0	4,669050217E0	6,924000263E0
2,108764666E1	-2,101950169E0	4,762050152E0	6,720000267E0
2,110781012E1	-2,418000221E0	4,615950108E0	7,146000385E0
2,112797354E1	-2,689050198E0	4,236000061E0	8,338950157E0
2,114813721E1	-2,497050047E0	3,819000244E0	9,307950020E0
2,116830063E1	-1,891950130E0	3,501000166E0	9,154950142E0
2,118846403E1	-1,734000087E0	3,484050274E0	8,518050194E0
2,120862765E1	-1,932000041E0	3,919950247E0	8,044050217E0
2,122879102E1	-2,350950003E0	4,216050148E0	8,044050217E0
2,124895468E1	-2,289000034E0	4,645050049E0	7,242000580E0
2,126911805E1	-2,682000160E0	4,980000019E0	6,988050461E0
2,128928144E1	-2,859000206E0	5,335050106E0	8,004000664E0
2,130944490E1	-2,839950085E0	4,963050365E0	9,237000465E0
2,132960827E1	-2,926050186E0	4,528050423E0	1,009095001E1
2,134977197E1	-3,309000254E0	4,621050358E0	1,087200069E1
2,136993525E1	-3,381000042E0	4,497000217E0	1,063500023E1
2,139009872E1	-3,240000248E0	4,497000217E0	9,559950829E0
2,141026232E1	-2,824950218E0	4,642950058E0	8,770050049E0
2,143042580E1	-2,394000053E0	4,525050163E0	7,266000271E0
2,145058920E1	-2,080950022E0	4,468050003E0	6,880950451E0
2,147075281E1	-1,801050067E0	4,261950016E0	6,684000492E0
2,149091619E1	-1,791000128E0	4,225950241E0	7,027050495E0
2,151107966E1	-2,305950165E0	4,372050285E0	8,133000374E0
2,153124303E1	-2,380050182E0	4,171050072E0	8,700000763E0
2,155140664E1	-2,095050097E0	3,996000290E0	9,172050476E0
2,157157008E1	-1,999050140E0	3,841050148E0	9,196050644E0
2,159173345E1	-2,047049999E0	3,883950233E0	9,373050690E0
2,161189708E1	-2,047049999E0	3,975000143E0	8,716950417E0
2,163206054E1	-2,062050104E0	4,281000137E0	7,510050297E0
2,165222394E1	-2,325000048E0	4,693050385E0	6,996000290E0
2,167238754E1	-2,854050159E0	4,848000050E0	7,948950291E0
2,169255094E1	-2,775000095E0	4,645050049E0	8,470050812E0
2,171271441E1	-2,401950121E0	4,328999996E0	8,671950340E0
2,173287779E1	-2,241000175E0	3,850050211E0	9,442950249E0
2,175304140E1	-2,089950085E0	3,493050098E0	1,083795071E1
2,177320489E1	-1,398000121E0	3,301950216E0	1,032405090E1
2,179336828E1	-1,099050045E0	3,583950281E0	8,554050446E0
2,181353167E1	-1,518000126E0	4,171050072E0	7,333050251E0
2,183369528E1	-2,325000048E0	4,798050404E0	7,618050575E0
2,185385876E1	-2,706000090E0	4,819950104E0	8,017950058E0
2,187402237E1	-2,485050201E0	4,444050312E0	8,401050568E0
2,189418575E1	-2,631000042E0	4,006050110E0	9,328050613E0
2,191434914E1	-2,590950012E0	3,714000225E0	1,027305031E1
2,193451251E1	-2,517000198E0	3,465000153E0	1,091295052E1
2,195467622E1	-2,052000046E0	3,297000170E0	1,031400013E1
2,197483958E1	-1,870050073E0	3,388050079E0	9,045000076E0
2,199500296E1	-1,755000114E0	3,510000229E0	8,338950157E0
2,201516645E1	-1,956000090E0	4,144950390E0	7,182000160E0
2,203533007E1	-2,377950191E0	4,270950317E0	7,795050144E0
2,205549347E1	-2,610000134E0	4,281000137E0	8,812950134E0
2,207565695E1	-2,809050083E0	4,168950081E0	9,277050018E0
2,209582037E1	-2,875950098E0	4,087049961E0	9,568950653E0
2,211598398E1	-2,665050030E0	4,120950222E0	9,964950562E0
2,213614735E1	-2,257950068E0	4,123050213E0	8,949000359E0
2,215631080E1	-2,377950191E0	4,141950130E0	8,176050186E0
2,217647440E1	-2,845050097E0	4,315050125E0	9,049950600E0
2,219663778E1	-2,674950123E0	4,173000336E0	9,298950195E0
2,221680123E1	-2,314950228E0	4,185000420E0	8,262000084E0
2,223696462E1	-2,727000237E0	4,425000191E0	7,885950565E0
2,225712824E1	-3,061950207E0	4,465050220E0	8,599950790E0
2,227729160E1	-2,944950104E0	4,171050072E0	8,122950554E0
2,229745508E1	-2,701050043E0	4,185000420E0	7,780950546E0
2,231761870E1	-2,785050154E0	4,185000420E0	8,608950615E0
2,233778210E1	-2,830050230E0	4,006050110E0	9,352050781E0
2,235794550E1	-2,332050085E0	3,960000277E0	9,094950676E0
2,237810897E1	-2,212050200E0	4,054049969E0	8,704950333E0
2,239827266E1	-2,095050097E0	4,269000053E0	8,095050812E0
2,241843596E1	-2,131050110E0	4,374000072E0	8,194950104E0
2,243859964E1	-2,449050188E0	4,518000126E0	8,221050262E0
2,245876278E1	-2,779950142E0	4,497000217E0	8,983050346E0
2,247892638E1	-2,968950033E0	4,345950127E0	9,370950699E0
2,249908977E1	-3,027000189E0	4,530000210E0	9,610050201E0
2,251925322E1	-2,944950104E0	4,396049976E0	9,499950409E0
2,253941659E1	-2,991000175E0	4,149000168E0	9,366000175E0
2,255958020E1	-3,097950220E0	3,868950129E0	9,376049995E0
2,257974363E1	-2,493000031E0	3,508050203E0	9,310950279E0
2,259990701E1	-1,362000108E0	3,208050251E0	7,864950180E0
2,262007039E1	-8,860500455E-1	3,189000130E0	6,841950417E0
2,264023403E1	-1,188000083E0	3,271050215E0	6,712950230E0
2,266039742E1	-1,450950027E0	3,522000074E0	7,807050228E0
2,268056088E1	-1,489050031E0	3,598950148E0	7,672950268E0
2,270072450E1	-1,410000086E0	4,111050129E0	7,518000126E0
2,272088788E1	-1,477050066E0	4,461000443E0	6,687000275E0
2,274105126E1	-1,734000087E0	4,681050301E0	7,029000282E0
2,276121473E1	-2,428050041E0	4,633050442E0	9,154950142E0
2,278137814E1	-3,043050051E0	4,153950214E0	1,119300079E1
2,280154181E1	-3,265950203E0	3,643950224E0	1,210995102E1
2,282170520E1	-2,602950096E0	3,570000172E0	1,098705006E1
2,284186858E1	-1,519950032E0	3,679950237E0	8,959050179E0
2,286203196E1	-7,300500274E-1	3,589050055E0	8,212050438E0
2,288219565E1	-3,090000153E-1	3,562950134E0	8,346000671E0
2,290235927E1	-6,180000305E-1	3,211050034E0	9,190950394E0
2,292252265E1	-1,633050084E0	3,307050228E0	1,010595036E1
2,294268611E1	-2,314950228E0	3,469050169E0	1,058700085E1
2,296284949E1	-1,840950131E0	3,520050049E0	9,495000839E0
2,298301309E1	-4,930500090E-1	2,896950245E0	8,569050789E0
2,300317650E1	-1,609500051E-1	2,919000149E0	7,447950363E0
2,302333986E1	4,905000329E-2	3,052950144E0	7,354950428E0
2,304350332E1	1,500000060E-1	2,860950232E0	7,840950489E0
2,306366671E1	-3,310500085E-1	3,024000168E0	7,648950577E0
2,308383032E1	-1,566000104E0	3,715950251E0	7,630050182E0
2,310399349E1	-3,010050058E0	4,288050175E0	8,985000610E0
2,312415718E1	-3,366000175E0	4,353000164E0	9,699000359E0
2,314432057E1	-3,121950150E0	4,201950073E0	9,838050842E0
2,316448396E1	-3,334950209E0	3,943050146E0	1,078605080E1
2,318464758E1	-3,405000210E0	3,808950186E0	1,157100010E1
2,320481097E1	-3,004950047E0	3,802050114E0	1,113495064E1
2,322497438E1	-2,107050180E0	3,819000244E0	9,253050804E0
2,324513783E1	-2,227050066E0	4,057950020E0	8,545050621E0
2,326530143E1	-2,602950096E0	4,168950081E0	9,286950111E0
2,328546478E1	-2,119050026E0	3,538950205E0	9,771000862E0
2,330562818E1	-1,621050119E0	3,286950111E0	9,297000885E0
2,332579166E1	-1,786050081E0	3,559950113E0	8,818050385E0
2,334595504E1	-1,657050133E0	3,754050255E0	8,593050003E0
2,336611866E1	-1,249950051E0	3,880950212E0	7,494000435E0
2,338628203E1	-1,173000097E0	3,888000250E0	7,386000156E0
2,340644549E1	-1,264050007E0	3,916950226E0	7,941000462E0
2,342660888E1	-1,177950025E0	3,666000128E0	8,866050720E0
2,344677250E1	-1,249950051E0	3,442950249E0	9,391950607E0
2,346693590E1	-1,920000076E0	3,618000269E0	9,742050171E0
2,348709937E1	-2,550000191E0	3,807000160E0	9,871050835E0
2,350726274E1	-2,476050138E0	3,598950148E0	9,583950043E0
2,352742636E1	-2,059050083E0	3,405000210E0	8,848950386E0
2,354758973E1	-1,777050138E0	3,469050169E0	8,322000504E0
2,356775313E1	-1,792950034E0	3,783000231E0	7,716000557E0
2,358791660E1	-2,026050091E0	4,117949963E0	7,387950420E0
2,360808021E1	-2,602950096E0	4,422000408E0	7,992000580E0
2,362824362E1	-2,851950169E0	4,303050041E0	9,343950272E0
2,364840710E1	-2,478000164E0	3,864000082E0	1,006500053E1
2,366857046E1	-2,296050072E0	3,441000223E0	1,069695091E1
2,368873383E1	-2,026050091E0	3,454950094E0	1,048905087E1
2,370889745E1	-1,602000117E0	3,637050152E0	9,070950508E0
2,372906087E1	-1,750050068E0	3,984000206E0	7,824000359E0
2,374922434E1	-2,461050034E0	4,243050098E0	8,032050133E0
2,376938771E1	-2,713050127E0	3,940950155E0	9,127050400E0
2,378955108E1	-1,984950066E0	3,417000055E0	8,650050163E0
2,380971467E1	-1,224000096E0	3,400050163E0	7,792950153E0
2,382987812E1	-9,120000601E-1	3,699000120E0	7,170000553E0
2,385004153E1	-8,620500565E-1	3,891000271E0	7,044000149E0
2,387020516E1	-1,015050054E0	3,844950199E0	7,732950211E0
2,389036833E1	-1,519950032E0	3,691950083E0	8,842050552E0
2,391053195E1	-2,167050123E0	3,594000101E0	1,075905037E1
2,393069541E1	-2,554950237E0	3,568050146E0	1,165995026E1
2,395085880E1	-2,619000196E0	3,739950180E0	1,097295094E1
2,397102240E1	-2,683950186E0	4,054049969E0	9,895050049E0
2,399118580E1	-2,719950199E0	4,147050381E0	9,643950462E0
2,401134920E1	-2,290950060E0	3,895950079E0	8,892000198E0
2,403151264E1	-1,872000098E0	3,790050268E0	8,272050858E0
2,405167601E1	-1,650000095E0	3,802050114E0	7,837950230E0
2,407183938E1	-1,687950134E0	3,844950199E0	7,699950218E0
2,409200298E1	-1,771950126E0	3,868950129E0	7,965000153E0
2,411216635E1	-1,627950072E0	3,691950083E0	8,581050873E0
2,413232981E1	-1,410000086E0	3,529050112E0	8,848950386E0
2,415249320E1	-1,498950124E0	3,385950089E0	9,574050903E0
2,417265659E1	-1,695000052E0	3,393000126E0	1,021800041E1
2,419282021E1	-1,741050124E0	3,493050098E0	9,852000237E0
2,421298358E1	-1,852950096E0	3,814050198E0	8,925000191E0
2,423314702E1	-1,959000111E0	3,943050146E0	8,727000237E0
2,425331038E1	-1,767000079E0	3,934050083E0	8,380050659E0
2,427347400E1	-1,966050148E0	4,048950195E0	8,310000420E0
2,429363737E1	-2,452050209E0	4,237950325E0	9,289050102E0
2,431380084E1	-2,365950108E0	4,354950428E0	9,031050682E0
2,433396423E1	-2,287050009E0	4,396049976E0	8,478000641E0
2,435412762E1	-2,731950045E0	4,357950211E0	8,989950180E0
2,437429101E1	-3,145950079E0	4,008000374E0	1,031205082E1
2,439445466E1	-2,991000175E0	3,577050209E0	1,074300098E1
2,441461805E1	-1,975050092E0	3,256050110E0	9,115050316E0
2,443478154E1	-1,055999994E0	3,201000214E0	7,611000538E0
2,445494492E1	-3,900000155E-1	3,253950119E0	6,865950108E0
2,447510833E1	-2,400000021E-2	3,043050051E0	7,173000336E0
2,449527194E1	-7,090500593E-1	2,935050249E0	8,386950493E0
2,451543533E1	-1,678950071E0	3,205950260E0	9,277050018E0
2,453559871E1	-2,047049999E0	3,615000248E0	9,625050545E0
2,455576213E1	-1,896000147E0	3,856950283E0	8,937000275E0
2,457592550E1	-2,389950037E0	3,948000193E0	8,809950829E0
2,459608911E1	-2,868000031E0	4,006050110E0	9,943050385E0
2,461625251E1	-2,245950222E0	3,838050127E0	1,049100018E1
2,463641590E1	-9,480000734E-1	3,232050180E0	9,388050079E0
2,465657936E1	-1,600050092E0	3,666000128E0	9,069000244E0
2,467674298E1	-2,667000055E0	4,147050381E0	9,595950127E0
2,469690633E1	-3,376050234E0	4,506000042E0	9,568950653E0
2,471706971E1	-3,378000259E0	4,188000202E0	8,692950249E0
2,473723318E1	-3,562950134E0	3,759000063E0	9,268050194E0
2,475739655E1	-3,184950113E0	3,193950176E0	9,993000031E0
2,477755994E1	-1,669050097E0	2,770050049E0	8,329050064E0
2,479772355E1	-3,499500155E-1	3,151050091E0	6,261000156E0
2,481788692E1	7,240500450E-1	4,072950363E0	4,837950230E0
2,483805037E1	1,024049997E0	3,982050180E0	5,077950478E0
2,485821367E1	-8,569500446E-1	3,093000174E0	7,920000553E0
2,487837716E1	-4,398000240E0	3,654000282E0	1,334505081E1
2,489854078E1	-6,232050419E0	3,697050095E0	1,578000069E1
2,491870416E1	-4,717050076E0	3,156000137E0	1,336200047E1
2,493886756E1	-2,313000202E0	2,713050127E0	9,406949997E0
2,495903103E1	-8,910000324E-1	2,866050243E0	6,181950092E0
2,497919440E1	3,270000219E-1	3,430950165E0	4,659000397E0
2,499935777E1	6,930000186E-1	3,418950081E0	5,061000347E0
2,501952115E1	-5,599500537E-1	3,754050255E0	7,441050529E0
2,503968478E1	-2,488050222E0	4,444050312E0	8,230950356E0
2,505984819E1	-4,413000107E0	5,076000214E0	9,577050209E0
2,508001157E1	-5,418000221E0	5,176950455E0	1,184205055E1
2,510017505E1	-4,920000076E0	4,456050396E0	1,276095104E1
2,512033842E1	-3,525000095E0	3,675000191E0	1,212900066E1
2,514050179E1	-2,895000219E0	3,406950235E0	1,062795067E1
2,516066542E1	-2,598000050E0	3,520050049E0	9,012000084E0
2,518082891E1	-2,401950121E0	3,613050222E0	7,909950256E0
2,520099230E1	-1,963050127E0	3,766050100E0	6,828000546E0
2,522115566E1	-1,609050035E0	3,766050100E0	5,794050217E0
2,524131902E1	-1,767000079E0	3,754050255E0	6,318000317E0
2,526148262E1	-1,923000097E0	3,568050146E0	7,807050228E0
2,528164600E1	-1,719000101E0	3,232050180E0	8,308050156E0
2,530180941E1	-1,657050133E0	3,043050051E0	8,301000595E0
2,532197287E1	-2,014050007E0	3,334950209E0	8,530050278E0
2,534213625E1	-2,038050175E0	3,538950205E0	8,704950333E0
2,536229987E1	-1,738050103E0	3,450000048E0	9,202950478E0
2,538246332E1	-1,429950118E0	2,967000246E0	9,742050171E0
2,540262671E1	-1,282950044E0	2,971050024E0	1,035495090E1
2,542279009E1	-1,468050122E0	3,088950157E0	1,045095062E1
2,544295371E1	-1,494000077E0	3,462000132E0	9,370950699E0
2,546311710E1	-1,747950077E0	3,994050264E0	8,467950821E0
2,548328050E1	-2,325000048E0	4,519950390E0	7,395000458E0
2,550344399E1	-3,453000069E0	4,899000168E0	6,883050442E0
2,552360738E1	-4,509000301E0	5,160000324E0	8,953950882E0
2,554377076E1	-4,080000401E0	4,525050163E0	1,023300076E1
2,556393404E1	-2,289000034E0	3,529050112E0	9,196050644E0
2,558409751E1	-1,602000117E0	3,874050140E0	7,807050228E0
2,560426087E1	-2,077950001E0	4,630950451E0	7,257000446E0
2,562442450E1	-2,320050001E0	5,083050251E0	7,293000221E0
2,564458787E1	-2,677050114E0	4,966050148E0	7,957950592E0
2,566475128E1	-2,859000206E0	4,485000134E0	8,839050293E0
2,568491472E1	-3,517050266E0	4,054049969E0	1,042695045E1
2,570507810E1	-3,931950092E0	3,714000225E0	1,200900078E1
2,572524153E1	-3,979050159E0	3,441000223E0	1,270800018E1
2,574540493E1	-3,055050135E0	3,049950123E0	1,089105034E1
2,576556854E1	-2,302950144E0	2,907000065E0	8,989950180E0
2,578573192E1	-1,770000100E0	3,073950052E0	7,750050545E0
2,580589531E1	-1,068000078E0	3,247050047E0	6,559950352E0
2,582605868E1	-8,050500154E-1	3,382950068E0	5,595000267E0
2,584622214E1	-9,049500227E-1	3,601050138E0	5,808000088E0
2,586638550E1	-1,054050088E0	3,814050198E0	6,682050228E0
2,588654889E1	-1,045950055E0	3,393000126E0	8,068050385E0
2,590671247E1	-1,147050023E0	3,004950047E0	9,346950531E0
2,592687582E1	-1,780950069E0	2,782050133E0	1,138395023E1
2,594703918E1	-2,791950226E0	2,923050165E0	1,308900070E1
2,596720257E1	-3,316050053E0	2,908950090E0	1,280895042E1
2,598736606E1	-2,593050241E0	2,703000069E0	1,064205074E1
2,600752945E1	-1,597050071E0	2,634000063E0	8,842050552E0
2,602769286E1	-6,010500193E-1	2,847000122E0	7,318950176E0
2,604785625E1	1,469999999E-1	3,028950214E0	6,136050224E0
2,606801988E1	4,440000355E-1	3,112950087E0	5,832000256E0
2,608818328E1	-4,189500213E-1	3,580050230E0	6,222000122E0
2,610834675E1	-1,947000146E0	4,318950176E0	6,853950500E0
2,612851020E1	-2,974050045E0	4,786050320E0	7,069950104E0
2,614867383E1	-3,784950256E0	5,337000370E0	7,237050533E0
2,616883699E1	-4,023000240E0	5,449050426E0	7,431000233E0
2,618900060E1	-4,513050079E0	5,260050297E0	8,715000153E0
2,620916400E1	-4,944000244E0	5,056950092E0	1,032795048E1
2,622932737E1	-4,935000420E0	4,798050404E0	1,126695061E1
2,624949082E1	-4,468050003E0	4,590000153E0	1,061595058E1
2,626965420E1	-3,888000250E0	4,414950371E0	9,547950745E0
2,628981761E1	-3,814050198E0	4,434000015E0	9,663000107E0
2,630998097E1	-3,649050236E0	4,128000259E0	9,744000435E0
2,633014432E1	-3,127050161E0	3,723000288E0	9,058950424E0
2,635030799E1	-2,943000078E0	3,538950205E0	8,643000603E0
2,637047128E1	-2,875950098E0	3,406950235E0	8,686050415E0
2,639063466E1	-2,470950127E0	3,271050215E0	8,437050819E0
2,641079809E1	-1,815000057E0	3,097950220E0	7,728000164E0
2,643096139E1	-1,449000120E0	2,908950090E0	7,252050400E0
2,645112487E1	-1,165950060E0	2,679000139E0	7,659000397E0
2,647128822E1	-9,430500269E-1	2,461050034E0	8,269050598E0
2,649145160E1	-8,860500455E-1	2,449050188E0	8,323950768E0
2,651161524E1	-1,054050088E0	2,394000053E0	8,755050659E0
2,653177863E1	-1,555950046E0	2,667000055E0	9,196050644E0
2,655194202E1	-2,458950043E0	3,093000174E0	9,651000023E0
2,657210549E1	-3,484050274E0	3,489000082E0	1,057500076E1
2,659226881E1	-3,927000284E0	3,658950090E0	1,132395077E1
2,661243219E1	-3,433950186E0	3,522000074E0	1,038405037E1
2,663259567E1	-2,884950161E0	3,610950232E0	8,751000404E0
2,665275905E1	-2,593050241E0	3,922050238E0	7,756950378E0
2,667292269E1	-2,739000082E0	4,152000427E0	7,288050175E0
2,669308608E1	-3,559950113E0	4,390950203E0	8,035050392E0
2,671324946E1	-4,209000111E0	4,297950268E0	9,220050812E0
2,673341284E1	-4,249950409E0	4,149000168E0	1,010805035E1
2,675357620E1	-3,721050262E0	3,687000275E0	9,759000778E0
2,677373963E1	-3,400050163E0	3,727950096E0	8,620950699E0
2,679390302E1	-3,433950186E0	3,867000103E0	8,322000504E0
2,681406638E1	-3,400050163E0	3,904950142E0	7,920000553E0
2,683422977E1	-3,421950102E0	3,880950212E0	7,515000343E0
2,685439315E1	-3,517050266E0	4,027050018E0	7,369050503E0
2,687455676E1	-3,570000172E0	4,192049980E0	7,702050209E0
2,689472013E1	-3,292050123E0	3,928950071E0	8,065950394E0
2,691488351E1	-3,331050158E0	3,829050064E0	8,374950409E0
2,693504697E1	-3,613050222E0	3,817050219E0	8,941950798E0
2,695521029E1	-4,153950214E0	3,903000116E0	9,984000206E0
2,697537376E1	-4,272000313E0	3,766050100E0	1,061595058E1
2,699553716E1	-3,984000206E0	3,328050137E0	1,081005096E1
2,701570055E1	-3,615000248E0	2,976000071E0	1,083600044E1
2,703586393E1	-3,172950268E0	2,788950205E0	9,900000572E0
2,705602752E1	-2,586000204E0	2,799000025E0	8,614050865E0
2,707619088E1	-1,936950088E0	2,902050257E0	6,979050159E0
2,709635427E1	-1,710000038E0	3,148950100E0	5,905950069E0
2,711651764E1	-1,851000071E0	3,532050133E0	6,136050224E0
2,713668114E1	-2,088000059E0	3,225000143E0	7,672950268E0
2,715684454E1	-1,647000074E0	2,614950180E0	8,959050179E0
2,717700793E1	-1,578000069E0	2,469000101E0	9,583950043E0
2,719717132E1	-1,971000075E0	3,031050205E0	8,889000893E0
2,721733470E1	-2,272050142E0	3,514950275E0	8,170949936E0
2,723749810E1	-2,823000193E0	3,819000244E0	8,956950188E0
2,725766150E1	-2,916000128E0	3,919950247E0	9,619950294E0
2,727782515E1	-2,791950226E0	3,975000143E0	9,162000656E0
2,729798854E1	-3,307050228E0	4,450950146E0	8,563950539E0
2,731815172E1	-4,225950241E0	4,971000195E0	8,985000610E0
2,733831533E1	-4,995000362E0	5,095050335E0	1,030005074E1
2,735847868E1	-5,137950420E0	4,698000431E0	1,176705074E1
2,737864214E1	-4,630950451E0	4,003050327E0	1,189905071E1
2,739880552E1	-4,185000420E0	3,558000088E0	1,186095047E1
2,741896891E1	-3,919950247E0	3,228000164E0	1,138200092E1
2,743913230E1	-3,187050104E0	2,634000063E0	1,032105064E1
2,745929570E1	-2,746050119E0	2,394000053E0	9,043050766E0
2,747945908E1	-2,173950195E0	2,449050188E0	7,747050285E0
2,749962247E1	-1,477050066E0	2,779950142E0	5,944950104E0
2,751978608E1	-1,057950020E0	3,430950165E0	4,339950085E0
2,753994948E1	-9,700500369E-1	4,036950111E0	3,292050123E0
2,756011287E1	-1,542000055E0	4,578000069E0	3,919050217E0
2,758027626E1	-2,397000074E0	4,642950058E0	6,270000458E0
2,760043973E1	-2,940000057E0	4,056000233E0	8,659950256E0
2,762060302E1	-3,217950106E0	2,955000162E0	1,147095013E1
2,764076648E1	-3,670950174E0	2,503950119E0	1,359900093E1
2,766092984E1	-4,141950130E0	2,752950191E0	1,388400078E1
2,768109319E1	-4,149000168E0	2,920950174E0	1,246905041E1
2,770125657E1	-3,481050253E0	3,109950066E0	9,643950462E0
2,772141996E1	-3,201000214E0	3,228000164E0	8,098950386E0
2,774158335E1	-3,241950035E0	2,980950117E0	8,977950096E0
2,776174698E1	-2,884950161E0	2,485050201E0	1,022595024E1
2,778191033E1	-1,630950093E0	2,346000195E0	9,013950348E0
2,780207372E1	-6,270000339E-1	2,773050070E0	7,048050404E0
2,782223719E1	-1,530000120E-1	3,274950266E0	5,287950039E0
2,784240056E1	-5,890500546E-1	3,988950253E0	5,415000439E0
2,786256396E1	-1,711950064E0	4,303050041E0	7,788000584E0
2,788272732E1	-3,003000259E0	3,157950163E0	1,204800034E1
2,790289070E1	-4,231050014E0	2,080950022E0	1,604100037E1
2,792305431E1	-4,963050365E0	2,538000107E0	1,633095169E1
2,794321768E1	-4,651950359E0	3,249000072E0	1,306305027E1
2,796338106E1	-3,606000185E0	3,472050190E0	8,947050095E0
2,798354444E1	-3,325950146E0	3,433050156E0	6,928950310E0
2,800370783E1	-3,481050253E0	3,534000158E0	8,128050804E0
2,802387123E1	-2,713050127E0	3,013950109E0	9,036000252E0
2,804403464E1	-1,264050007E0	2,799000025E0	7,738050461E0
2,806419779E1	-6,060000062E-1	3,168000221E0	6,148050308E0
2,808436141E1	-9,889500737E-1	3,738000154E0	5,740950108E0
2,810452477E1	-2,016000032E0	4,116000175E0	7,977000237E0
2,812468818E1	-2,686950207E0	3,790050268E0	1,075200081E1
2,814485135E1	-2,008949995E0	3,088950157E0	1,206405067E1
2,816501498E1	-1,765050054E0	3,103050232E0	1,112295055E1
2,818517837E1	-3,052950144E0	4,176000118E0	1,015395069E1
2,820534173E1	-4,291050434E0	4,353000164E0	1,141095066E1
2,822550510E1	-4,396049976E0	3,663000107E0	1,280895042E1
2,824566850E1	-3,345000267E0	2,655000210E0	1,146795082E1
2,826583197E1	-2,854050159E0	2,518950224E0	9,379950523E0
2,828599532E1	-2,251049995E0	2,641050100E0	7,398000240E0
2,830615870E1	-1,381950021E0	3,096000195E0	5,676000118E0
2,832632217E1	1,699050069E0	3,796950102E0	4,494000435E0
2,834648549E1	5,125050068E0	2,440500110E-1	7,635000229E0
2,836664887E1	5,719050407E0	-1,081050038E0	1,046700096E1
2,838681235E1	1,093050003E0	1,486950040E0	1,037595081E1
2,840697566E1	-5,530950069E0	4,603950024E0	1,140795040E1
2,842713911E1	-8,955000877E0	5,806050301E0	1,380300045E1
2,844730250E1	-6,841050148E0	4,252050400E0	1,262505054E1
2,846746588E1	-3,501000166E0	2,503950119E0	1,015800095E1
2,848762926E1	-1,852950096E0	2,433000088E0	6,502050400E0
2,850779264E1	1,069500074E-1	4,651950359E0	2,935050249E0
2,852795604E1	2,697000027E0	4,019999981E0	3,346950054E0
2,854811962E1	9,210000634E-1	2,578950167E0	6,715050220E0
2,856828302E1	-3,064950228E0	4,840950012E0	8,911050797E0
2,858844613E1	-6,328050137E0	6,709050179E0	9,991050720E0
2,860860953E1	-6,462000370E0	7,048950195E0	1,108305073E1
2,862877289E1	-6,541050434E0	6,024000168E0	1,221000099E1
2,864893626E1	-6,970050335E0	4,960950375E0	1,443495083E1
2,866909964E1	-6,094050407E0	4,030050278E0	1,520295048E1
2,868926305E1	-4,087049961E0	3,268050194E0	1,262700081E1
2,870942642E1	-3,003000259E0	3,199050188E0	9,487950325E0
2,872959002E1	-2,788950205E0	3,418950081E0	8,329050064E0
2,874975319E1	-2,619000196E0	3,331050158E0	7,834050179E0
2,876991662E1	-2,326950073E0	3,169950247E0	7,510050297E0
2,879008006E1	-1,807950139E0	3,120000124E0	6,984000206E0
2,881024345E1	-9,990000725E-1	2,821050167E0	7,357050419E0
2,883040682E1	9,195000678E-2	2,008949995E0	8,401050568E0
2,885057020E1	8,149500489E-1	1,282950044E0	9,507000923E0
2,887073356E1	4,900500178E-1	1,621050119E0	9,720000267E0
2,889089698E1	-8,359500170E-1	2,503950119E0	9,892950058E0
2,891106035E1	-2,008949995E0	3,268050194E0	9,897000313E0
2,893122375E1	-2,761050224E0	3,745050192E0	9,505050659E0
2,895138710E1	-3,252000093E0	3,967050076E0	8,985000610E0
2,897155047E1	-3,141000032E0	3,763950109E0	9,294000626E0
2,899171379E1	-2,904000044E0	3,562950134E0	9,397050858E0
2,901187726E1	-2,622000217E0	3,574950218E0	8,824950218E0
2,903204055E1	-2,703000069E0	3,876000166E0	8,371950150E0
2,905220400E1	-2,880000114E0	4,113000393E0	8,284049988E0
2,907236738E1	-3,144000053E0	4,159049988E0	8,775000572E0
2,909253080E1	-3,298950195E0	4,048950195E0	9,322950363E0
2,911269410E1	-3,663000107E0	4,128000259E0	9,664950371E0
2,913285755E1	-3,562950134E0	3,964950085E0	9,778050423E0
2,915302087E1	-3,424050093E0	3,781050205E0	9,727950096E0
2,917318435E1	-3,160950184E0	3,601050138E0	8,961000443E0
2,919334765E1	-3,085950136E0	3,610950232E0	8,442000389E0
2,921351104E1	-3,201000214E0	3,721050262E0	8,104050636E0
2,923367450E1	-3,144000053E0	3,721050262E0	7,791000366E0
2,925383779E1	-3,007050037E0	3,630000114E0	7,732950211E0
2,927400126E1	-2,739000082E0	3,591000080E0	7,644000530E0
2,929416457E1	-2,509050131E0	3,618000269E0	7,342950344E0
2,931432795E1	-2,413950205E0	3,663000107E0	7,383000374E0
2,933449135E1	-2,566950083E0	3,687000275E0	7,957950592E0
2,935465472E1	-2,782050133E0	3,799950123E0	8,575950623E0
2,937481818E1	-2,866050243E0	3,987000227E0	8,904000282E0
2,939498145E1	-2,995050192E0	4,006050110E0	8,947050095E0
2,941514482E1	-3,298950195E0	4,090050220E0	9,466950417E0
2,943530819E1	-3,466950178E0	3,999000072E0	1,038795090E1
2,945547156E1	-3,394950151E0	3,850050211E0	1,062105083E1
2,947563497E1	-3,112950087E0	3,787950277E0	9,675000191E0
2,949579837E1	-3,109950066E0	3,876000166E0	9,079050064E0
2,951596173E1	-3,040950060E0	3,904950142E0	8,559000015E0
2,953612513E1	-2,907000065E0	3,907950163E0	8,005949974E0
2,955628851E1	-2,698050022E0	3,892950296E0	7,549050331E0
2,957645197E1	-2,563950062E0	3,895950079E0	7,333050251E0
2,959661529E1	-2,490000010E0	3,934050083E0	7,257000446E0
2,961677846E1	-2,550000191E0	4,072950363E0	7,066950321E0
2,963694207E1	-2,842050076E0	4,248000145E0	7,603950500E0
2,965710519E1	-3,129000187E0	4,216050148E0	8,431950569E0
2,967726882E1	-3,100950241E0	3,940950155E0	9,154950142E0
2,969743200E1	-3,232050180E0	3,844950199E0	9,811050415E0
2,971759537E1	-3,352050066E0	3,799950123E0	9,993000031E0
2,973775875E1	-3,223050117E0	3,757050276E0	9,691950798E0
2,975792215E1	-2,964000225E0	3,727950096E0	9,058950424E0
2,977808553E1	-2,737050056E0	3,642000198E0	8,815050125E0
2,979824912E1	-2,686950207E0	3,586950064E0	8,767050743E0
2,981841228E1	-2,739000082E0	3,550950050E0	8,878050804E0
2,983857565E1	-2,653050184E0	3,430950165E0	8,911050797E0
2,985873903E1	-2,653050184E0	3,354000092E0	8,845950127E0
2,987890240E1	-2,818050146E0	3,337950230E0	8,836950302E0
2,989906577E1	-2,950050116E0	3,349950075E0	8,782050133E0
2,991922910E1	-2,992950201E0	3,277950048E0	8,692950249E0
2,993939250E1	-2,992950201E0	3,268050194E0	8,467950821E0
2,995955587E1	-2,887950182E0	3,310950041E0	8,140049934E0
2,997971934E1	-2,659950018E0	3,430950165E0	7,647000313E0
2,999988266E1	-2,662950039E0	3,697050095E0	7,206000328E0
3,002004604E1	-2,923950195E0	3,888000250E0	7,597050190E0
3,004020942E1	-3,201000214E0	3,883950233E0	8,916000366E0
3,006037281E1	-3,016950130E0	3,535950184E0	9,820950508E0
3,008053621E1	-2,899950027E0	3,313950062E0	1,028505039E1
3,010069957E1	-3,055050135E0	3,376050234E0	1,058895016E1
3,012086295E1	-2,935950041E0	3,388050079E0	1,043595028E1
3,014102635E1	-2,848950148E0	3,298950195E0	1,011795044E1
3,016118950E1	-2,434950113E0	3,196050167E0	9,142950058E0
3,018135291E1	-2,287050009E0	3,289950132E0	8,262000084E0
3,020151633E1	-2,341950178E0	3,559950113E0	7,489050388E0
3,022167971E1	-2,695950031E0	3,922050238E0	7,194000244E0
3,024184312E1	-3,199050188E0	4,080000401E0	7,731000423E0
3,026200653E1	-3,223050117E0	3,916950226E0	8,788949966E0
3,028216991E1	-3,064950228E0	3,697050095E0	9,292050362E0
3,030233328E1	-2,845050097E0	3,589050055E0	9,358950615E0
3,032249666E1	-2,932950258E0	3,859950066E0	8,892000198E0
3,034266007E1	-3,127050161E0	4,024950027E0	8,571000099E0
3,036282346E1	-3,496050119E0	3,943050146E0	9,162000656E0
3,038298685E1	-3,702000141E0	3,819000244E0	9,840000153E0
3,040315023E1	-3,409950256E0	3,462000132E0	1,010805035E1
3,042331359E1	-2,868000031E0	3,310950041E0	9,378000259E0
3,044347698E1	-2,445000172E0	3,241950035E0	8,676000595E0
3,046364030E1	-2,332050085E0	3,280050039E0	8,173950195E0
3,048380370E1	-2,469000101E0	3,388050079E0	7,936950207E0
3,050396682E1	-2,442000151E0	3,417000055E0	8,028000832E0
3,052413044E1	-2,430000067E0	3,369000196E0	8,152050018E0
3,054429363E1	-2,416050196E0	3,310950041E0	8,623950005E0
3,056445724E1	-2,313000202E0	3,100950241E0	9,127050400E0
3,058462038E1	-2,236050129E0	3,117000103E0	9,057000160E0
3,060478368E1	-2,442000151E0	3,321000099E0	8,809950829E0
3,062494706E1	-2,548050165E0	3,630000114E0	8,676000595E0
3,064511045E1	-2,386950016E0	3,784950256E0	8,265000343E0
3,066527383E1	-2,469000101E0	3,960000277E0	8,023050308E0
3,068543723E1	-3,076950073E0	4,365000248E0	8,629050255E0
3,070560059E1	-3,502950191E0	4,408050060E0	9,610050201E0
3,072576370E1	-3,622950077E0	4,342950344E0	1,017000008E1
3,074592710E1	-3,370950222E0	4,009950161E0	1,040505028E1
3,076609050E1	-2,950050116E0	3,739950180E0	9,888000488E0
3,078625387E1	-2,794050217E0	3,613050222E0	9,055050850E0
3,080641726E1	-2,809050083E0	3,586950064E0	8,190000534E0
3,082658063E1	-2,836950064E0	3,534000158E0	8,061000824E0
3,084674393E1	-2,397000074E0	3,325950146E0	7,810050488E0
3,086690730E1	-2,121000051E0	3,153000116E0	7,690050602E0
3,088707068E1	-2,092950106E0	3,175050259E0	7,807050228E0
3,090723409E1	-2,341950178E0	3,268050194E0	8,262000084E0
3,092739747E1	-2,622000217E0	3,252000093E0	8,904000282E0
3,094756084E1	-2,794050217E0	3,261000156E0	9,445050240E0
3,096772400E1	-2,847000122E0	3,259050131E0	1,007700062E1
3,098788739E1	-2,701050043E0	3,349950075E0	1,012500095E1
3,100805076E1	-2,686950207E0	3,582000256E0	9,660000801E0
3,102821414E1	-3,117000103E0	3,826050282E0	9,531000137E0
3,104837775E1	-3,417000055E0	3,907950163E0	9,652950287E0
3,106854090E1	-3,388050079E0	4,018050194E0	9,232050896E0
3,108870422E1	-3,316050053E0	4,009950161E0	8,290950775E0
3,110886759E1	-3,322950125E0	3,919950247E0	8,335950851E0
3,112903098E1	-2,971050024E0	3,805050135E0	8,442000389E0
3,114919438E1	-2,506950140E0	3,429000139E0	8,334000587E0
3,116935778E1	-2,317950010E0	3,498000145E0	7,893000603E0
3,118952117E1	-2,490000010E0	3,697050095E0	7,929000378E0
3,120968433E1	-2,830050230E0	3,760950089E0	8,584950447E0
3,122984774E1	-3,084000111E0	3,544050217E0	9,361050606E0
3,125001113E1	-3,271050215E0	3,424050093E0	1,001700020E1
3,127017449E1	-3,172950268E0	3,496050119E0	9,985950470E0
3,129033780E1	-2,634000063E0	3,465000153E0	8,668950081E0
3,131050120E1	-2,701050043E0	3,642000198E0	8,023050308E0
3,133066457E1	-3,082050085E0	3,910050154E0	8,185950279E0
3,135082794E1	-3,148950100E0	3,814050198E0	8,584950447E0
3,137099133E1	-2,847000122E0	3,835950136E0	8,274000168E0
3,139115449E1	-2,638950109E0	3,915000200E0	8,008049965E0
3,141131785E1	-2,670000076E0	4,036950111E0	7,972050190E0
3,143148123E1	-3,151050091E0	4,128000259E0	8,377050400E0
3,145164466E1	-3,402000189E0	4,135050297E0	8,664000511E0
3,147180804E1	-3,286950111E0	3,988950253E0	8,719950676E0
3,149197130E1	-2,892000198E0	3,751950264E0	8,631000519E0
3,151213468E1	-2,689050198E0	3,627000093E0	8,676000595E0
3,153229807E1	-2,842050076E0	3,634950161E0	8,916000366E0
3,155246146E1	-2,988000154E0	3,627000093E0	9,025950432E0
3,157262482E1	-2,923950195E0	3,538950205E0	9,021000862E0
3,159278796E1	-2,610000134E0	3,342000246E0	8,788949966E0
3,161295135E1	-2,373000145E0	3,213000059E0	8,763000488E0
3,163311474E1	-2,365950108E0	3,144000053E0	8,851050377E0
3,165327804E1	-2,554950237E0	3,156000137E0	8,875050545E0
3,167344153E1	-2,545050144E0	3,265950203E0	8,803050041E0
3,169360480E1	-2,314950228E0	3,418950081E0	8,193000793E0
3,171376820E1	-2,421000004E0	3,441000223E0	8,401050568E0
3,173393157E1	-2,743950129E0	3,541050196E0	9,325050354E0
3,175409474E1	-2,782050133E0	3,469050169E0	9,495000839E0
3,177425834E1	-2,803950071E0	3,496050119E0	9,756000519E0
3,179442149E1	-2,584050179E0	3,478950262E0	9,535950661E0
3,181458488E1	-2,410950184E0	3,565050125E0	9,277050018E0
3,183474828E1	-2,370000124E0	3,553050280E0	8,988000870E0
3,185491158E1	-2,614950180E0	3,678000212E0	8,779050827E0
3,187507502E1	-2,899950027E0	3,721050262E0	8,887050629E0
3,189523839E1	-2,887950182E0	3,658950090E0	9,174000740E0
3,191540170E1	-2,599950075E0	3,595950127E0	8,832000732E0
3,193556487E1	-2,718000174E0	3,610950232E0	8,796000481E0
3,195572830E1	-3,076950073E0	3,772950172E0	9,118950844E0
3,197589170E1	-3,253950119E0	3,745050192E0	9,213000298E0
3,199605530E1	-3,133950233E0	3,622950077E0	9,094950676E0
3,201621837E1	-3,085950136E0	3,715950251E0	8,935050011E0
3,203638176E1	-3,240000248E0	3,922050238E0	8,748000145E0
3,205654517E1	-3,441000223E0	4,036950111E0	8,494050026E0
3,207670855E1	-3,615000248E0	4,132950306E0	8,743050575E0
3,209687196E1	-3,117000103E0	3,807000160E0	8,344050407E0
3,211703508E1	-2,502000093E0	3,718050241E0	7,714050293E0
3,213719847E1	-2,212050200E0	3,915000200E0	7,278000355E0
3,215736184E1	-2,289000034E0	4,291050434E0	6,897000313E0
3,217752517E1	-2,773050070E0	4,719000340E0	7,113000393E0
3,219768863E1	-3,496050119E0	4,722000122E0	8,218950272E0
3,221785201E1	-3,867000103E0	4,306950092E0	9,558000565E0
3,223801531E1	-3,454950094E0	3,489000082E0	1,045995045E1
3,225817844E1	-2,538000107E0	2,967000246E0	9,676950455E0
3,227834184E1	-2,140950203E0	3,189000130E0	8,065950394E0
3,229850515E1	-1,816950083E0	3,376050234E0	7,168050289E0
3,231866861E1	-1,767000079E0	3,643950224E0	6,522000313E0
3,233883189E1	-2,287050009E0	3,946050167E0	6,775050163E0
3,235899529E1	-2,847000122E0	3,964950085E0	7,795050144E0
3,237915844E1	-3,187050104E0	3,751950264E0	8,788949966E0
3,239932208E1	-3,157950163E0	3,285000086E0	9,957000732E0
3,241948520E1	-2,782050133E0	3,031050205E0	1,038105011E1
3,243964859E1	-2,368050098E0	3,168000221E0	9,423000336E0
3,245981197E1	-2,608050108E0	3,900000095E0	7,984050274E0
3,247997527E1	-3,070050240E0	4,498950005E0	7,117950439E0
3,250013866E1	-3,462000132E0	4,650000095E0	7,848000526E0
3,252030204E1	-3,181950092E0	4,216050148E0	8,752950668E0
3,254046544E1	-2,931000233E0	3,807000160E0	9,438000679E0
3,256062857E1	-2,797050238E0	3,735000134E0	9,478050232E0
3,258079195E1	-2,689050198E0	3,832950115E0	9,285000801E0
3,260095534E1	-2,551950216E0	3,793050289E0	8,820000648E0
3,262111874E1	-2,539950132E0	3,622950077E0	8,809950829E0
3,264128204E1	-2,350950003E0	3,601050138E0	8,904000282E0
3,266144542E1	-2,041949987E0	3,546000242E0	8,422950745E0
3,268160882E1	-1,855950117E0	3,643950224E0	7,957950592E0
3,270177197E1	-1,789050102E0	3,879000187E0	7,791000366E0
3,272193536E1	-1,638000131E0	3,996000290E0	7,534050465E0
3,274209874E1	-1,867950082E0	4,129950047E0	7,744950294E0
3,276226234E1	-2,440050125E0	4,213950157E0	8,643000603E0
3,278242549E1	-3,049950123E0	4,353000164E0	9,406949997E0
3,280258889E1	-3,321000099E0	4,420050144E0	9,856950760E0
3,282275227E1	-3,271050215E0	4,465050220E0	9,768000603E0
3,284291565E1	-3,187050104E0	4,444050312E0	9,352050781E0
3,286307894E1	-3,084000111E0	4,366950035E0	9,009000778E0
3,288324233E1	-3,151050091E0	4,209000111E0	9,205950737E0
3,290340572E1	-3,208050251E0	3,948000193E0	9,514050484E0
3,292356912E1	-3,022050142E0	3,655950069E0	9,273000717E0
3,294373228E1	-2,746050119E0	3,304050207E0	8,913000107E0
3,296389566E1	-2,569050074E0	3,160950184E0	8,806050301E0
3,298405896E1	-2,389950037E0	3,108000040E0	8,170949936E0
3,300422235E1	-2,124000072E0	3,292050123E0	7,210950375E0
3,302438571E1	-1,915950060E0	3,508050203E0	6,471000195E0
3,304454887E1	-1,920000076E0	3,891000271E0	6,274950504E0
3,306471224E1	-2,490000010E0	4,123050213E0	7,168050289E0
3,308487555E1	-3,133950233E0	4,243050098E0	8,430000305E0
3,310503891E1	-3,334950209E0	4,123050213E0	9,687000275E0
3,312520227E1	-3,412050247E0	3,922050238E0	1,099905014E1
3,314536565E1	-3,445950270E0	3,958050251E0	1,130805016E1
3,316552882E1	-3,771000147E0	4,341000080E0	1,067100048E1
3,318569223E1	-3,946050167E0	4,642950058E0	9,522000313E0
3,320585563E1	-3,843000174E0	4,602000237E0	8,559000015E0
3,322601895E1	-3,559950113E0	4,390950203E0	8,335950851E0
3,324618237E1	-3,355050087E0	4,200000286E0	8,217000008E0
3,326634575E1	-2,884950161E0	3,912000179E0	7,936950207E0
3,328650915E1	-2,356050014E0	3,715950251E0	7,326000214E0
3,330667251E1	-2,301000118E0	3,706050158E0	6,972000122E0
3,332683566E1	-2,682000160E0	3,850050211E0	7,755000591E0
3,334699907E1	-2,976000071E0	3,630000114E0	8,560950279E0
3,336716243E1	-2,872950077E0	3,346950054E0	8,941950798E0
3,338732573E1	-2,800950050E0	3,283050060E0	8,997000694E0
3,340748913E1	-2,634000063E0	3,310950041E0	8,868000031E0
3,342765248E1	-2,623950243E0	3,541050196E0	8,533050537E0
3,344781588E1	-2,878050089E0	3,796950102E0	8,485050201E0
3,346797902E1	-3,145950079E0	3,924000263E0	8,659950256E0
3,348814243E1	-3,169950247E0	3,916950226E0	8,787000656E0
3,350830582E1	-2,866050243E0	3,871950150E0	8,782050133E0
3,352846917E1	-2,791950226E0	3,895950079E0	8,253000259E0
3,354863255E1	-3,313950062E0	4,036950111E0	8,635950089E0
3,356879587E1	-3,508050203E0	3,970050097E0	9,391950607E0
3,358895899E1	-3,070050240E0	3,723000288E0	8,911050797E0
3,360912238E1	-2,928000212E0	3,757050276E0	8,237999916E0
3,362928580E1	-3,220050097E0	3,772950172E0	8,803050041E0
3,364944919E1	-3,037950039E0	3,546000242E0	9,085950851E0
3,366961250E1	-2,527950048E0	3,429000139E0	8,149950027E0
3,368977590E1	-2,361000061E0	3,591000080E0	7,659000397E0
3,370993927E1	-2,659950018E0	3,867000103E0	8,098950386E0
3,373010243E1	-3,061950207E0	3,832950115E0	9,208050728E0
3,375026582E1	-3,436050177E0	3,970050097E0	9,676950455E0
3,377042921E1	-3,667950153E0	3,979050159E0	9,730050087E0
3,379059260E1	-3,550950050E0	3,994050264E0	9,306000710E0
3,381075588E1	-3,205950260E0	3,924000263E0	8,707950592E0
3,383091925E1	-2,883000135E0	3,697050095E0	8,479949951E0
3,385108264E1	-2,470950127E0	3,687000275E0	7,884000301E0
3,387124577E1	-2,290950060E0	3,760950089E0	7,546050549E0
3,389140918E1	-2,205000162E0	3,738000154E0	7,624950409E0
3,391157255E1	-2,608050108E0	3,679950237E0	8,584950447E0
3,393173586E1	-3,121950150E0	3,613050222E0	9,736950874E0
3,395189923E1	-3,343050241E0	3,448050261E0	1,035000038E1
3,397206260E1	-3,429000139E0	3,498000145E0	1,001205063E1
3,399222600E1	-3,232050180E0	3,775950193E0	9,162000656E0
3,401238917E1	-2,643000126E0	3,754050255E0	8,039999962E0
3,403255258E1	-2,350950003E0	3,903000116E0	7,218000412E0
3,405271597E1	-2,488050222E0	4,101000309E0	7,233000278E0
3,407287929E1	-2,950050116E0	4,104000092E0	8,274000168E0
3,409304265E1	-3,145950079E0	3,979050159E0	8,976000786E0
3,411320603E1	-3,012000084E0	3,781050205E0	8,968950272E0
3,413336920E1	-2,907000065E0	3,646950245E0	8,977950096E0
3,415353257E1	-2,791950226E0	3,496050119E0	9,019050598E0
3,417369594E1	-2,514000177E0	3,390000105E0	8,380050659E0
3,419385924E1	-2,497050047E0	3,607950211E0	7,788000584E0
3,421402264E1	-2,803950071E0	4,009950161E0	7,627950191E0
3,423418602E1	-3,024000168E0	4,168950081E0	7,786050320E0
3,425434919E1	-3,454950094E0	3,982050180E0	9,012000084E0
3,427451280E1	-3,465000153E0	3,879000187E0	9,787050247E0
3,429467587E1	-3,094050169E0	3,649050236E0	9,760950089E0
3,431483933E1	-2,956950188E0	3,805050135E0	8,884950638E0
3,433500268E1	-2,851950169E0	4,078050137E0	8,214000702E0
3,435516584E1	-2,860950232E0	4,135050297E0	8,133000374E0
3,437532945E1	-2,803950071E0	4,008000374E0	8,173950195E0
3,439549260E1	-3,096000195E0	4,093950272E0	8,848950386E0
3,441565597E1	-3,064950228E0	4,152000427E0	9,079050064E0
3,443581928E1	-2,821050167E0	3,979050159E0	8,690999985E0
3,445598266E1	-2,646000147E0	3,922050238E0	8,229000092E0
3,447614605E1	-2,842050076E0	3,802050114E0	8,596950531E0
3,449630942E1	-2,785050154E0	3,570000172E0	8,770050049E0
3,451647252E1	-2,727000237E0	3,454950094E0	8,626049995E0
3,453663591E1	-2,670000076E0	3,469050169E0	8,542050362E0
3,455679931E1	-2,557050228E0	3,514950275E0	8,535000801E0
3,457696270E1	-2,466000080E0	3,520050049E0	8,110950470E0
3,459712602E1	-2,068950176E0	3,370950222E0	8,181000710E0
3,461728918E1	-2,311050177E0	3,565050125E0	8,221050262E0
3,463745253E1	-2,746050119E0	3,781050205E0	8,551950455E0
3,465761592E1	-2,799000025E0	3,607950211E0	9,127050400E0
3,467777929E1	-2,670000076E0	3,292050123E0	9,700950623E0
3,469794260E1	-2,572050095E0	3,133950233E0	9,921000481E0
3,471810599E1	-2,902050257E0	3,121950150E0	1,014705086E1
3,473826946E1	-2,955000162E0	3,319050074E0	9,876000404E0
3,475843255E1	-2,518950224E0	3,208050251E0	8,719950676E0
3,477859592E1	-2,029950142E0	3,153000116E0	7,917000294E0
3,479875931E1	-1,699950099E0	3,148950100E0	7,383000374E0
3,481892263E1	-1,968000054E0	3,466950178E0	7,612950325E0
3,483908601E1	-2,449050188E0	3,811950207E0	7,654050350E0
3,485924938E1	-2,533050060E0	3,895950079E0	7,999050617E0
3,487941254E1	-2,995050192E0	3,727950096E0	8,925000191E0
3,489957592E1	-3,036000252E0	3,501000166E0	1,028295040E1
3,491973921E1	-2,574000120E0	3,280050039E0	1,007895088E1
3,493990267E1	-2,422950029E0	3,192000151E0	1,037205029E1
3,496006596E1	-2,794050217E0	3,237000227E0	1,079295063E1
3,498022912E1	-2,980950117E0	3,570000172E0	1,021605015E1
3,500039274E1	-2,932950258E0	3,522000074E0	9,615000725E0
3,502055590E1	-2,517000198E0	3,448050261E0	8,869950294E0
3,504071929E1	-2,143050194E0	3,381000042E0	8,418000221E0
3,506088263E1	-1,711950064E0	3,261000156E0	7,836000443E0
3,508104603E1	-1,386000037E0	3,256050110E0	7,306950569E0
3,510120919E1	-1,771950126E0	3,370950222E0	8,230950356E0
3,512137258E1	-2,299050093E0	3,376050234E0	9,261000633E0
3,514153598E1	-2,466000080E0	3,325950146E0	9,505050659E0
3,516169927E1	-2,437950134E0	3,132000208E0	9,555000305E0
3,518186266E1	-2,667000055E0	3,211050034E0	9,511950493E0
3,520202582E1	-3,012000084E0	3,237000227E0	1,014705086E1
3,522218943E1	-2,880000114E0	3,216000080E0	9,991050720E0
3,524235281E1	-2,458950043E0	3,268050194E0	8,881950378E0
3,526251596E1	-2,191050053E0	3,388050079E0	8,170949936E0
3,528267933E1	-2,437950134E0	3,835950136E0	7,855050564E0
3,530284269E1	-3,010050058E0	4,201950073E0	8,097000122E0
3,532300600E1	-3,562950134E0	4,309950352E0	9,028050423E0
3,534316940E1	-3,571950197E0	4,075050354E0	9,439949989E0
3,536333279E1	-3,277950048E0	3,766050100E0	9,531000137E0
3,538349595E1	-2,698050022E0	3,538950205E0	8,965950012E0
3,540365932E1	-2,131050110E0	3,385950089E0	8,152050018E0
3,542382264E1	-2,113950014E0	3,400050163E0	7,711950302E0
3,544398576E1	-2,457000017E0	3,523950100E0	8,332050323E0
3,546414915E1	-2,878050089E0	3,510000229E0	9,186000824E0
3,548431253E1	-2,776950121E0	3,256050110E0	9,298950195E0
3,550447592E1	-2,397000074E0	3,060000181E0	9,234000206E0
3,552463925E1	-2,131050110E0	3,169950247E0	8,788949966E0
3,554480264E1	-2,184000015E0	3,562950134E0	8,257050514E0
3,556496577E1	-2,830050230E0	4,120950222E0	8,011050224E0
3,558512916E1	-3,453000069E0	4,378950119E0	8,152050018E0
3,560529247E1	-3,201000214E0	4,117949963E0	8,461050034E0
3,562545584E1	-2,658000231E0	3,835950136E0	8,509050369E0
3,564561925E1	-2,437950134E0	3,522000074E0	8,806050301E0
3,566578242E1	-2,422950029E0	3,328050137E0	9,723000526E0
3,568594579E1	-2,478000164E0	3,297000170E0	1,003905010E1
3,570610909E1	-2,385000229E0	3,297000170E0	9,024000168E0
3,572627256E1	-2,437950134E0	3,357000113E0	8,414999962E0
3,574643595E1	-2,446950197E0	3,325950146E0	8,395950317E0
3,576659923E1	-2,325000048E0	3,321000099E0	8,820000648E0
3,578676264E1	-2,145000219E0	3,321000099E0	8,362950325E0
3,580692580E1	-2,220000029E0	3,667950153E0	8,050950050E0
3,582708913E1	-2,512050152E0	4,048950195E0	7,944000244E0
3,584725252E1	-2,641050100E0	4,084949970E0	8,535000801E0
3,586741591E1	-2,502000093E0	3,955050230E0	8,965950012E0
3,588757904E1	-2,626950026E0	3,879000187E0	9,580950737E0
3,590774265E1	-2,998050213E0	3,819000244E0	1,039305019E1
3,592790572E1	-3,286950111E0	3,820950270E0	1,055595016E1
3,594806918E1	-3,097950220E0	3,751950264E0	9,720000267E0
3,596823246E1	-2,713050127E0	3,646950245E0	8,808000565E0
3,598839585E1	-2,494950056E0	3,687000275E0	7,824000359E0
3,600855897E1	-2,641050100E0	3,892950296E0	7,372050285E0
3,602872233E1	-2,737050056E0	3,900000095E0	7,348050117E0
3,604888571E1	-2,875950098E0	3,829050064E0	7,627950191E0
3,606904903E1	-2,976000071E0	3,760950089E0	8,554050446E0
3,608921243E1	-2,703000069E0	3,735000134E0	8,406000137E0
3,610937583E1	-2,256000042E0	3,711000204E0	8,053950310E0
3,612953899E1	-2,076000214E0	3,844950199E0	7,908000469E0
3,614970238E1	-2,290950060E0	3,898050070E0	8,451000214E0
3,616986570E1	-2,493000031E0	3,808950186E0	9,246000290E0
3,619002911E1	-2,797050238E0	3,691950083E0	1,023000050E1
3,621019250E1	-3,049950123E0	3,757050276E0	1,004400063E1
3,623035564E1	-2,868000031E0	3,862050295E0	8,851050377E0
3,625051894E1	-2,650950193E0	3,883950233E0	8,242950439E0
3,627068230E1	-2,358000040E0	3,886050224E0	8,080050468E0
3,629084569E1	-1,888950109E0	3,808950186E0	7,792950153E0
3,631100884E1	-2,065950155E0	3,982050180E0	7,873950481E0
3,633117224E1	-2,931000233E0	4,212000370E0	8,707950592E0
3,635133555E1	-3,505050182E0	3,999000072E0	9,859050751E0
3,637149902E1	-3,397950172E0	3,534000158E0	1,091700077E1
3,639166235E1	-3,148950100E0	3,112950087E0	1,096995068E1
3,641182574E1	-2,481000185E0	3,055050135E0	9,543000221E0
3,643198888E1	-2,004000187E0	3,286950111E0	7,908000469E0
3,645215227E1	-1,867950082E0	3,639000177E0	6,439950466E0
3,647231565E1	-2,221950054E0	4,027050018E0	6,399000168E0
3,649247897E1	-2,572050095E0	3,879000187E0	7,897950172E0
3,651264212E1	-2,305950165E0	3,535950184E0	8,526000023E0
3,653280552E1	-2,239050150E0	3,474000216E0	9,088050842E0
3,655296889E1	-2,854050159E0	3,952950239E0	9,366000175E0
3,657313226E1	-3,622950077E0	4,141950130E0	9,928950310E0
3,659329556E1	-3,795000076E0	4,099050045E0	1,066605091E1
3,661345872E1	-3,340050220E0	3,678000212E0	1,047705078E1
3,663362208E1	-2,476050138E0	3,529050112E0	9,210000038E0
3,665378547E1	-2,398950100E0	3,796950102E0	7,963050365E0
3,667394885E1	-2,470950127E0	3,991050243E0	7,032000542E0
3,669411217E1	-2,919000149E0	4,092000008E0	7,515000343E0
3,671427534E1	-3,268050194E0	3,868950129E0	9,115050316E0
3,673443869E1	-2,907000065E0	3,508050203E0	9,318000793E0
3,675460207E1	-2,277000189E0	3,252000093E0	8,667000771E0
3,677476546E1	-2,482950211E0	3,790050268E0	7,917000294E0
3,679492877E1	-3,264000177E0	4,267050266E0	8,134950638E0
3,681509217E1	-3,750000238E0	4,306950092E0	8,985000610E0
3,683525534E1	-3,642000198E0	3,898050070E0	9,507000923E0
3,685541871E1	-3,241950035E0	3,610950232E0	9,772950172E0
3,687558205E1	-2,770050049E0	3,697050095E0	8,710050583E0
3,689574544E1	-2,401950121E0	3,960000277E0	7,411950588E0
3,691590862E1	-2,521050215E0	4,233000278E0	6,828000546E0
3,693607198E1	-3,151050091E0	4,465050220E0	7,716000557E0
3,695623537E1	-3,478950262E0	4,381950378E0	9,058950424E0
3,697639875E1	-3,280050039E0	4,255050182E0	9,298950195E0
3,699656203E1	-3,103050232E0	4,204050064E0	9,130949974E0
3,701672543E1	-2,871000051E0	4,105950356E0	9,085950851E0
3,703688882E1	-2,818050146E0	4,177950382E0	8,242950439E0
3,705705195E1	-2,968950033E0	4,318950176E0	7,831050396E0
3,707721525E1	-3,151050091E0	4,465050220E0	7,483950138E0
3,709737864E1	-3,019050121E0	4,312050343E0	7,779000282E0
3,711754204E1	-2,803950071E0	4,081950188E0	7,840950489E0
3,713770523E1	-2,742000103E0	3,919950247E0	8,281050682E0
3,715786862E1	-2,677050114E0	3,895950079E0	8,546999931E0
3,717803195E1	-2,839950085E0	3,903000116E0	8,779050827E0
3,719819533E1	-3,072000027E0	3,819000244E0	9,382950783E0
3,721835847E1	-3,223050117E0	3,690000057E0	9,782999992E0
3,723852185E1	-3,256050110E0	3,565050125E0	9,811050415E0
3,725868517E1	-3,129000187E0	3,631950140E0	8,961000443E0
3,727884855E1	-2,971050024E0	3,682050228E0	7,984050274E0
3,729901169E1	-3,117000103E0	3,924000263E0	7,362000465E0
3,731917507E1	-3,310950041E0	4,044000149E0	7,342950344E0
3,733933836E1	-3,085950136E0	3,843000174E0	7,804950237E0
3,735950175E1	-2,647950172E0	3,775950193E0	7,684950352E0
3,737966511E1	-2,562000036E0	3,766050100E0	7,735050201E0
3,739982828E1	-2,713050127E0	3,639000177E0	8,584950447E0
3,741999165E1	-2,896950245E0	3,619950056E0	9,826050758E0
3,744015503E1	-2,751000166E0	3,610950232E0	9,655950546E0
3,746031833E1	-2,575950146E0	3,637050152E0	8,855999947E0
3,748048171E1	-2,818050146E0	3,787950277E0	8,755050659E0
3,750064487E1	-3,129000187E0	3,919950247E0	9,085950851E0
3,752080823E1	-3,172950268E0	3,910050154E0	8,527950287E0
3,754097155E1	-3,241950035E0	3,963000298E0	8,122950554E0
3,756113493E1	-3,369000196E0	4,123050213E0	7,987050533E0
3,758129812E1	-3,604050159E0	4,153950214E0	8,365050316E0
3,760146150E1	-3,298950195E0	4,042050362E0	7,972050190E0
3,762162479E1	-2,974050045E0	4,060950279E0	7,470000267E0
3,764178816E1	-3,004950047E0	4,141950130E0	7,603950500E0
3,766195155E1	-3,232050180E0	4,096950054E0	8,359950066E0
3,768211471E1	-3,532050133E0	4,032000065E0	9,100049973E0
3,770227807E1	-3,421950102E0	3,880950212E0	9,535950661E0
3,772244145E1	-2,737050056E0	3,747000217E0	8,791049957E0
3,774260485E1	-2,737050056E0	4,032000065E0	7,779000282E0
3,776276816E1	-3,328050137E0	4,269000053E0	7,879050255E0
3,778293154E1	-3,610950232E0	4,176000118E0	8,855999947E0
3,780309469E1	-3,223050117E0	3,856950283E0	8,947050095E0
3,782325805E1	-2,610000134E0	3,793050289E0	7,762050152E0
3,784342137E1	-2,868000031E0	4,216050148E0	7,350000381E0
3,786358476E1	-3,187050104E0	4,252050400E0	7,927050591E0
3,788374794E1	-3,177000046E0	4,008000374E0	8,398950577E0
3,790391126E1	-3,124950171E0	3,963000298E0	8,772000313E0
3,792407465E1	-3,003000259E0	3,994050264E0	8,880000114E0
3,794423779E1	-3,084000111E0	3,964950085E0	8,968950272E0
3,796440114E1	-3,240000248E0	3,948000193E0	9,274950027E0
3,798456453E1	-3,457050085E0	3,940950155E0	9,382950783E0
3,800472768E1	-3,562950134E0	3,883950233E0	9,493050575E0
3,802489106E1	-3,034050226E0	3,759000063E0	8,584950447E0
3,804505437E1	-2,524050236E0	3,565050125E0	7,656000137E0
3,806521775E1	-2,454000235E0	3,646950245E0	7,321050167E0
3,808538088E1	-2,617050171E0	3,783000231E0	7,435950279E0
3,810554426E1	-2,956950188E0	3,819000244E0	7,704000473E0
3,812570765E1	-3,172950268E0	3,841050148E0	8,439000130E0
3,814587098E1	-2,830050230E0	3,598950148E0	8,845950127E0
3,816603410E1	-2,598000050E0	3,357000113E0	9,270000458E0
3,818619748E1	-2,797050238E0	3,532050133E0	9,459000587E0
3,820636087E1	-3,228000164E0	3,690000057E0	9,792000771E0
3,822652416E1	-3,079050064E0	3,484050274E0	9,208050728E0
3,824668736E1	-3,184950113E0	3,706050158E0	8,643000603E0
3,826685078E1	-3,097950220E0	3,757050276E0	8,381999969E0
3,828701407E1	-2,746050119E0	3,831000090E0	7,711950302E0
3,830717747E1	-2,683950186E0	3,996000290E0	7,327950478E0
3,832734063E1	-3,295050144E0	4,405950069E0	7,573050499E0
3,834750400E1	-3,583950281E0	4,576050282E0	8,157000542E0
3,836766729E1	-3,229950190E0	4,312050343E0	8,650050163E0
3,838783068E1	-2,907000065E0	4,051050186E0	8,818050385E0
3,840799407E1	-3,084000111E0	3,915000200E0	9,531000137E0
3,842815724E1	-3,241950035E0	3,867000103E0	1,012695026E1
3,844832060E1	-3,223050117E0	3,811950207E0	9,463950157E0
3,846848388E1	-3,453000069E0	3,964950085E0	8,758049965E0
3,848864706E1	-3,535950184E0	3,904950142E0	8,878050804E0
3,850881045E1	-3,070050240E0	3,430950165E0	9,115050316E0
3,852897376E1	-2,538000107E0	3,180000067E0	8,770050049E0
3,854913691E1	-2,542950153E0	3,225000143E0	8,676000595E0
3,856930029E1	-2,581050158E0	3,274950266E0	8,674050331E0
3,858946366E1	-2,767950058E0	3,283050060E0	8,794050217E0
3,860962696E1	-2,980950117E0	3,565050125E0	8,546999931E0
3,862979013E1	-2,743950129E0	3,562950134E0	8,254950523E0
3,864995350E1	-2,647950172E0	3,511950254E0	8,583000183E0
3,867011689E1	-3,028950214E0	3,622950077E0	9,547950745E0
3,869028019E1	-2,956950188E0	3,496050119E0	9,880950928E0
3,871044357E1	-2,943000078E0	3,625050068E0	9,451950073E0
3,873060673E1	-3,261000156E0	4,093950272E0	8,755050659E0
3,875077013E1	-3,615000248E0	4,212000370E0	8,880000114E0
3,877093347E1	-3,795000076E0	4,125000000E0	9,505050659E0
3,879109663E1	-3,691950083E0	3,934050083E0	9,979050636E0
3,881126001E1	-3,084000111E0	3,829050064E0	8,833950043E0
3,883142329E1	-3,103050232E0	4,021950245E0	8,218950272E0
3,885158670E1	-3,619950056E0	4,161000252E0	8,518050194E0
3,887174986E1	-3,829050064E0	3,975000143E0	9,415950775E0
3,889191318E1	-3,175050259E0	3,559950113E0	9,069000244E0
3,891207659E1	-2,670000076E0	3,321000099E0	8,611950874E0
3,893223995E1	-2,751000166E0	3,546000242E0	8,482049942E0
3,895240309E1	-2,845050097E0	3,486000061E0	8,707950592E0
3,897256646E1	-2,859000206E0	3,460050106E0	8,193000793E0
3,899272976E1	-3,127050161E0	3,711000204E0	8,260050774E0
3,901289291E1	-3,151050091E0	3,663000107E0	8,746050835E0
3,903305629E1	-2,923950195E0	3,405000210E0	8,760000229E0
3,905321962E1	-3,156000137E0	3,630000114E0	8,569050789E0
3,907338308E1	-3,358950138E0	3,817050219E0	8,197950363E0
3,909354613E1	-3,244050264E0	3,666000128E0	8,359950066E0
3,911370952E1	-2,995050192E0	3,510000229E0	8,080050468E0
3,913387283E1	-2,761050224E0	3,532050133E0	8,212050438E0
3,915403619E1	-2,773050070E0	3,562950134E0	8,832000732E0
3,917419956E1	-2,878050089E0	3,486000061E0	9,558000565E0
3,919436266E1	-3,112950087E0	3,342000246E0	1,003200054E1
3,921452602E1	-3,115050077E0	3,252000093E0	9,637050629E0
3,923468918E1	-2,914050102E0	3,340050220E0	8,310000420E0
3,925485258E1	-2,926050186E0	3,535950184E0	7,225050449E0
3,927501597E1	-2,904000044E0	3,442950249E0	7,599000454E0
3,929517906E1	-2,944950104E0	3,460050106E0	8,095050812E0
3,931534245E1	-3,295050144E0	3,723000288E0	7,885950565E0
3,933550576E1	-3,522000074E0	3,943050146E0	8,419950485E0
3,935566893E1	-3,556050062E0	3,927000284E0	9,021000862E0
3,937583231E1	-3,019050121E0	3,625050068E0	9,028050423E0
3,939599567E1	-2,374950171E0	3,357000113E0	8,619000435E0
3,941615896E1	-2,389950037E0	3,523950100E0	8,344050407E0
3,943632211E1	-2,868000031E0	3,625050068E0	8,889000893E0
3,945648537E1	-3,301950216E0	3,856950283E0	9,145950317E0
3,947664882E1	-3,501000166E0	3,975000143E0	9,016050339E0
3,949681188E1	-3,189000130E0	3,691950083E0	9,379950523E0
3,951697528E1	-2,776950121E0	3,220050097E0	9,591000557E0
3,953713860E1	-2,362950087E0	3,072000027E0	8,905950546E0
3,955730178E1	-2,301000118E0	3,145950079E0	8,149950027E0
3,957746516E1	-2,622000217E0	3,358950138E0	8,212050438E0
3,959762855E1	-2,968950033E0	3,505050182E0	8,482049942E0
3,961779163E1	-2,854050159E0	3,286950111E0	8,497050285E0
3,963795503E1	-2,599950075E0	3,262950182E0	8,092050552E0
3,965811835E1	-2,560050011E0	3,438000202E0	8,142000198E0
3,967828153E1	-2,655000210E0	3,574950218E0	8,107049942E0
3,969844515E1	-3,187050104E0	3,880950212E0	8,623950005E0
3,971860831E1	-3,769050121E0	4,084949970E0	9,427950859E0
3,973877166E1	-3,865050077E0	4,060950279E0	1,018200016E1
3,975893474E1	-3,264000177E0	3,787950277E0	9,658050537E0
3,977909813E1	-3,223050117E0	3,996000290E0	8,916000366E0
3,979926146E1	-3,535950184E0	4,128000259E0	9,103050232E0
3,981942487E1	-3,283050060E0	3,775950193E0	8,788949966E0
3,983958800E1	-2,931000233E0	3,627000093E0	8,145000458E0
3,985975130E1	-2,956950188E0	3,699000120E0	7,936950207E0
3,987991468E1	-2,995050192E0	3,666000128E0	8,125950813E0
3,990007782E1	-2,713050127E0	3,526950121E0	7,965000153E0
3,992024115E1	-2,434950113E0	3,510000229E0	7,515000343E0
3,994040450E1	-2,422950029E0	3,649050236E0	7,278000355E0
3,996056765E1	-2,904000044E0	3,783000231E0	7,936950207E0
3,998073094E1	-3,280050039E0	3,687000275E0	8,824950218E0
4,000089433E1	-3,295050144E0	3,346950054E0	9,687000275E0
4,002105750E1	-3,211050034E0	3,070050240E0	1,036695004E1
4,004122090E1	-2,955000162E0	3,031050205E0	9,811050415E0
4,006138417E1	-3,010050058E0	3,252000093E0	8,680950165E0
4,008154731E1	-3,436050177E0	3,466950178E0	8,494050026E0
4,010171062E1	-3,405000210E0	3,535950184E0	8,229000092E0
4,012187404E1	-2,883000135E0	3,517050266E0	7,518000126E0
4,014203719E1	-2,466000080E0	3,594000101E0	6,847050190E0
4,016220061E1	-3,196050167E0	3,972000122E0	7,336050510E0
4,018236391E1	-3,912000179E0	4,176000118E0	8,928000450E0
4,020252727E1	-3,687000275E0	3,883950233E0	9,667950630E0
4,022269041E1	-3,189000130E0	3,673050165E0	9,328050613E0
4,024285373E1	-3,322950125E0	3,796950102E0	9,316050529E0
4,026301714E1	-3,393000126E0	3,670950174E0	9,853950500E0
4,028318033E1	-3,319050074E0	3,445050240E0	9,304050446E0
4,030334365E1	-3,043050051E0	3,448050261E0	8,430000305E0
4,032350704E1	-2,689050198E0	3,553050280E0	7,621050358E0
4,034367018E1	-2,530950069E0	3,685050249E0	6,559950352E0
4,036383346E1	-2,785050154E0	3,702000141E0	6,361050129E0
4,038399661E1	-3,004950047E0	3,589050055E0	7,908000469E0
4,040415990E1	-2,761050224E0	3,268050194E0	8,787000656E0
4,042432332E1	-2,689050198E0	3,169950247E0	9,358950615E0
4,044448648E1	-3,163050175E0	3,352050066E0	9,816000938E0
4,046464976E1	-3,775950193E0	3,430950165E0	1,042200089E1
4,048481287E1	-3,843000174E0	3,216000080E0	1,077900028E1
4,050497618E1	-3,187050104E0	2,773050070E0	9,997950554E0
4,052513958E1	-2,803950071E0	2,689050198E0	8,995050430E0
4,054530274E1	-2,631000042E0	2,718000174E0	8,394000053E0
4,056546603E1	-2,464050055E0	2,908950090E0	7,491000175E0
4,058562939E1	-2,464050055E0	3,301950216E0	6,486000538E0
4,060579254E1	-2,835000038E0	3,771000147E0	6,294000149E0
4,062595591E1	-3,168000221E0	3,852000237E0	7,173000336E0
4,064611900E1	-3,253950119E0	3,637050152E0	8,248050690E0
4,066628241E1	-3,340050220E0	3,541050196E0	9,538050652E0
4,068644570E1	-3,570000172E0	3,517050266E0	1,082895088E1
4,070660885E1	-4,204050064E0	3,673050165E0	1,169805050E1
4,072677224E1	-4,482000351E0	3,841050148E0	1,161405087E1
4,074693557E1	-3,763950109E0	3,642000198E0	1,008195019E1
4,076709874E1	-3,157950163E0	3,319050074E0	8,880000114E0
4,078726205E1	-2,806050062E0	3,211050034E0	8,368050575E0
4,080742544E1	-2,569050074E0	3,256050110E0	7,719000340E0
4,082758858E1	-2,257950068E0	3,271050215E0	7,051050186E0
4,084775188E1	-2,488050222E0	3,613050222E0	6,766050339E0
4,086791527E1	-2,979000092E0	3,886050224E0	7,174950123E0
4,088807844E1	-3,322950125E0	3,895950079E0	8,062950134E0
4,090824172E1	-3,460050106E0	3,817050219E0	8,755050659E0
4,092840490E1	-3,505050182E0	3,580050230E0	9,370950699E0
4,094856826E1	-3,333000183E0	3,295050144E0	1,045305061E1
4,096873133E1	-3,328050137E0	3,189000130E0	1,077900028E1
4,098889469E1	-3,106050253E0	3,115050077E0	9,864000320E0
4,100905800E1	-3,340050220E0	3,511950254E0	9,141000748E0
4,102922141E1	-3,730050087E0	3,565050125E0	9,631950378E0
4,104938457E1	-3,687000275E0	3,388050079E0	9,498000145E0
4,106954786E1	-3,076950073E0	3,022050142E0	8,980050087E0
4,108971101E1	-2,488050222E0	2,887950182E0	8,499000549E0
4,110987430E1	-1,996950150E0	2,964000225E0	7,728000164E0
4,113003769E1	-1,843950033E0	3,205950260E0	6,574050426E0
4,115020109E1	-2,433000088E0	3,811950207E0	6,474000454E0
4,117036417E1	-3,406950235E0	3,987000227E0	7,908000469E0
4,119052733E1	-3,328050137E0	3,619950056E0	9,016050339E0
4,121069062E1	-2,887950182E0	3,240000248E0	9,466950417E0
4,123085402E1	-2,641050100E0	3,309000254E0	8,851050377E0
4,125101717E1	-3,204000235E0	3,663000107E0	8,350950241E0
4,127118050E1	-3,856950283E0	3,982050180E0	9,154950142E0
4,129134364E1	-3,855000257E0	3,750000238E0	9,337050438E0
4,131150702E1	-3,522000074E0	3,559950113E0	8,964000702E0
4,133167032E1	-3,333000183E0	3,493050098E0	8,940000534E0
4,135183349E1	-2,904000044E0	3,217950106E0	8,760000229E0
4,137199681E1	-2,812950134E0	3,172050238E0	8,353050232E0
4,139215998E1	-3,003000259E0	3,180000067E0	8,485050201E0
4,141232338E1	-3,229950190E0	3,223050117E0	8,953950882E0
4,143248668E1	-2,947050095E0	3,121950150E0	9,009000778E0
4,145264984E1	-2,514000177E0	2,928000212E0	8,478000641E0
4,147281315E1	-2,394000053E0	2,800950050E0	8,431950569E0
4,149297630E1	-2,361000061E0	2,715000153E0	8,652000427E0
4,151313970E1	-2,217000008E0	2,833050251E0	8,475000381E0
4,153330301E1	-2,347050190E0	2,995050192E0	8,071050644E0
4,155346616E1	-3,181950092E0	3,448050261E0	8,170949936E0
4,157362956E1	-3,922050238E0	3,706050158E0	9,234000206E0
4,159379287E1	-3,817050219E0	3,655950069E0	9,672000885E0
4,161395592E1	-3,091050148E0	3,346950054E0	8,667000771E0
4,163411930E1	-2,932950258E0	3,466950178E0	8,068050385E0
4,165428246E1	-3,385950089E0	3,757050276E0	8,638050079E0
4,167444576E1	-3,498000145E0	3,646950245E0	9,213000298E0
4,169460894E1	-3,457050085E0	3,436050177E0	9,706050873E0
4,171477223E1	-3,160950184E0	3,061950207E0	1,014405060E1
4,173493538E1	-2,626950026E0	2,815950155E0	9,742050171E0
4,175509875E1	-2,653050184E0	3,024000168E0	8,722050667E0
4,177526205E1	-3,048000097E0	3,373950243E0	8,314949989E0
4,179542524E1	-3,156000137E0	3,441000223E0	8,688000679E0
4,181558860E1	-3,136950254E0	3,421950102E0	8,635950089E0
4,183575164E1	-3,121950150E0	3,430950165E0	8,692950249E0
4,185591498E1	-3,007050037E0	3,426000118E0	8,443950653E0
4,187607829E1	-3,037950039E0	3,424050093E0	8,491950035E0
4,189624145E1	-3,129000187E0	3,477000237E0	8,497050285E0
4,191640479E1	-3,049950123E0	3,474000216E0	8,776950836E0
4,193656796E1	-2,926050186E0	3,304050207E0	9,331950188E0
4,195673123E1	-2,835000038E0	3,213000059E0	9,459000587E0
4,197689461E1	-3,097950220E0	3,319050074E0	9,093000412E0
4,199705771E1	-3,462000132E0	3,340050220E0	9,201000214E0
4,201722113E1	-3,558000088E0	3,228000164E0	9,478050232E0
4,203738432E1	-3,268050194E0	2,947050095E0	9,439949989E0
4,205754763E1	-2,694000244E0	2,842050076E0	8,365050316E0
4,207771077E1	-2,755950212E0	3,088950157E0	7,642050266E0
4,209787417E1	-3,157950163E0	3,441000223E0	7,819050312E0
4,211803721E1	-3,321000099E0	3,472050190E0	8,254950523E0
4,213820051E1	-3,007050037E0	3,220050097E0	8,338950157E0
4,215836366E1	-2,614950180E0	3,180000067E0	8,074950218E0
4,217852701E1	-2,509050131E0	3,129000187E0	8,395950317E0
4,219869039E1	-2,655000210E0	3,157950163E0	8,884950638E0
4,221885354E1	-3,007050037E0	3,177000046E0	9,454950333E0
4,223901681E1	-3,631950140E0	3,322950125E0	9,823050499E0
4,225917997E1	-3,996000290E0	3,223050117E0	1,069005013E1
4,227934328E1	-3,658950090E0	3,007050037E0	1,042200089E1
4,229950641E1	-2,998050213E0	2,761050224E0	8,818050385E0
4,231966981E1	-2,845050097E0	2,914050102E0	7,888950348E0
