"Time (s)"	"Gyroscope x (rad/s)"	"Gyroscope y (rad/s)"	"Gyroscope z (rad/s)"
6,713867800E-2	-1,120625019E0	1,993750036E-2	-1,482249945E-1
8,730217300E-2	-7,874624729E-1	3,935250044E-1	4,977500066E-2
1,074658210E-1	-2,234375030E-1	2,870999873E-1	2,754124999E-1
1,276293190E-1	1,223749965E-1	-1,482249945E-1	4,063124955E-1
1,477930420E-1	4,042499885E-2	-4,237749875E-1	3,349500000E-1
1,679566680E-1	-2,447499931E-1	-4,610374868E-1	2,626250088E-1
1,881201380E-1	-5,938624740E-1	-2,886124849E-1	1,402499974E-1
2,082837760E-1	-2,512125075E-1	-1,002374962E-1	1,328250021E-1
2,284472380E-1	1,203124970E-1	1,487749964E-1	1,359875053E-1
2,486109110E-1	2,426874936E-1	1,934625059E-1	6,036249921E-2
2,687745210E-1	1,649999917E-1	1,115124971E-1	2,736249939E-2
2,889379590E-1	6,324999966E-3	-9,762499481E-3	2,213750035E-2
3,091015340E-1	-1,117874980E-1	-7,686249912E-2	2,956249937E-2
3,292649880E-1	-1,735250056E-1	-6,723749638E-2	5,939999968E-2
3,494286730E-1	-1,607374996E-1	-2,901249938E-2	1,050499976E-1
3,695922840E-1	-7,136250287E-2	-1,322750002E-1	1,157749966E-1
3,897557650E-1	-2,021249942E-2	-3,950375021E-1	7,535000145E-2
4,099193500E-1	-9,157499671E-2	-5,249750018E-1	1,787500083E-2
4,300830480E-1	-2,831124961E-1	-5,207124949E-1	-2,791249938E-2
4,502464890E-1	-3,916000128E-1	-4,035624862E-1	-3,643750027E-2
4,704100960E-1	-3,596999943E-1	-2,886124849E-1	-2,254999988E-2
4,905735570E-1	-2,883374989E-1	-1,715999991E-1	-1,306249946E-2
5,107371510E-1	-2,831124961E-1	-1,258125007E-1	-6,091250107E-2
5,309008220E-1	-2,756874859E-1	-1,152250022E-1	-1,098624989E-1
5,510642600E-1	-2,926000059E-1	7,631249726E-2	-1,832875013E-1
5,712278940E-1	-2,617999911E-1	2,626250088E-1	-2,259124964E-1
5,913913660E-1	-1,127500013E-1	2,114749998E-1	-2,385624945E-1
6,115549970E-1	7,548750192E-2	6,572499871E-2	-2,344374955E-1
6,317184780E-1	7,232499868E-2	-5,458749831E-2	-3,036000133E-1
6,518821170E-1	-6,489999592E-2	-3,533750027E-2	-3,588750064E-1
6,720457960E-1	-5,953750014E-2	1,787500083E-2	-3,759250045E-1
6,922092760E-1	1,160499975E-1	1,883750036E-2	-3,247750103E-1
7,123729020E-1	1,500124931E-1	-7,699999958E-3	-2,758249938E-1
7,325363580E-1	7,026249915E-2	-2,048750035E-2	-2,481874973E-1
7,527000700E-1	1,032624990E-1	-1,035374999E-1	-1,673374921E-1
7,728636900E-1	2,096875012E-1	-2,131250054E-1	-7,576250285E-2
7,930271710E-1	2,521750033E-1	-1,843875051E-1	-6,517499685E-2
8,131907670E-1	2,096875012E-1	-6,943749636E-2	-1,024374962E-1
8,333544630E-1	1,212750003E-1	2,309999987E-2	-7,796250284E-2
8,535178440E-1	5,004999787E-2	-2,158750035E-2	2,213750035E-2
8,736816250E-1	7,424999960E-3	-1,247124970E-1	7,961250097E-2
8,938450070E-1	6,063750014E-2	-1,854874939E-1	4,551250115E-2
9,140086340E-1	1,809500009E-1	-2,387000024E-1	1,677500084E-2
9,341721030E-1	1,979999989E-1	-2,908124924E-1	2,736249939E-2
9,543356990E-1	-7,424999960E-3	-2,928749919E-1	4,441250116E-2
9,744993760E-1	-3,053874969E-1	-5,032499880E-2	7,108750194E-2
9,946628610E-1	-3,947624862E-1	3,392125070E-1	1,135749966E-1
1,014826443E0	-1,447875053E-1	2,615250051E-1	1,604624987E-1
1,034989881E0	2,213750035E-1	-4,578749835E-1	8,387500048E-2
1,055153487E0	2,404875010E-1	-8,782125115E-1	9,666249901E-2
1,075316938E0	5,362499971E-3	-8,409500122E-1	1,700875014E-1
1,095480617E0	1,160499975E-1	-7,207750082E-1	3,786749840E-1
1,115644198E0	6,193000078E-1	-6,642624736E-1	5,956500173E-1
1,135807646E0	1,185524940E0	-6,280999780E-1	7,415375113E-1
1,155971360E0	1,594174981E0	-2,833875120E-1	8,937500119E-1
1,176134952E0	1,603799939E0	1,604624987E-1	9,862874746E-1
1,196298403E0	1,014199972E0	2,924624979E-1	1,221412539E0
1,216462031E0	3,682250082E-1	-2,003374994E-1	1,583312511E0
1,236625502E0	5,362499971E-3	-7,951624990E-1	1,640787482E0
1,256789158E0	-2,894375026E-1	-1,086799979E0	1,249187469E0
1,276952851E0	-5,821750164E-1	-9,134125113E-1	1,109762549E0
1,297116246E0	-7,587249875E-1	-2,142249942E-1	1,070299983E0
1,317279856E0	-6,331874728E-1	3,658874929E-1	7,830625176E-1
1,337443291E0	-2,310000062E-1	5,424374938E-1	3,870624900E-1
1,357606916E0	2,809124887E-1	3,679499924E-1	1,402499974E-1
1,377770615E0	6,852999926E-1	4,934875071E-1	1,413500011E-1
1,397934087E0	1,083362460E0	6,169624925E-1	4,732750058E-1
1,418097699E0	1,394112468E0	3,104749918E-1	6,234250069E-1
1,438261161E0	1,182362437E0	3,918749839E-2	3,616249859E-1
1,458424848E0	6,863999963E-1	1,539999992E-1	2,105125040E-1
1,478588233E0	3,224374950E-1	2,615250051E-1	1,337874979E-1
1,498752164E0	4,757499993E-1	3,445749879E-1	1,658249944E-1
1,518915558E0	6,109125018E-1	6,084374785E-1	3,382499889E-2
1,539079250E0	4,043875039E-1	3,179000020E-1	3,466374874E-1
1,559242690E0	2,501125038E-1	-1,002374962E-1	4,360125065E-1
1,579406284E0	2,245374918E-1	-2,337499987E-3	4,669499993E-1
1,599569731E0	3,298625052E-1	1,252624989E-1	6,169624925E-1
1,619733375E0	4,342249930E-1	2,190375030E-1	7,181624770E-1
1,639896871E0	3,693250120E-1	6,265875101E-1	6,510624886E-1
1,660060574E0	3,085500002E-1	9,032375216E-1	5,159000158E-1
1,680224187E0	3,522749841E-1	8,425999880E-1	4,254249930E-1
1,700387659E0	3,895374835E-1	5,956500173E-1	3,605250120E-1
1,720551282E0	2,831124961E-1	3,456749916E-1	2,381500006E-1
1,740714757E0	1,084875017E-1	1,457499992E-2	1,993750036E-2
1,760878452E0	4,688749835E-2	-3,184500039E-1	-1,343374997E-1
1,781042076E0	6,710000336E-2	-4,962374866E-1	-1,321374923E-1
1,801205503E0	1,297999918E-1	-5,504124761E-1	1,254000068E-1
1,821369182E0	3,852750063E-1	1,677500084E-2	3,562625051E-1
1,841532573E0	4,470124841E-1	3,488374949E-1	2,402125001E-1
1,861696198E0	4,149749875E-1	-1,992374957E-1	-2,322375029E-1
1,881859866E0	3,170749843E-1	-4,760249853E-1	-7,345250249E-1
1,902023338E0	2,479124963E-1	-7,313625216E-1	-8,079500198E-1
1,922187042E0	8,195000142E-2	-7,739874721E-1	-6,759499907E-1
1,942350644E0	5,101250112E-2	-7,782499790E-1	-5,376250148E-1
1,962514317E0	-3,409999982E-2	-6,175125241E-1	-4,195125103E-1
1,982677794E0	-9,473749995E-2	-4,993999898E-1	-3,216125071E-1
2,002841433E0	-2,447500080E-2	-5,418875217E-1	-2,875125110E-1
2,023004895E0	1,394249946E-1	-5,654000044E-1	-4,237749875E-1
2,043168520E0	4,437125027E-1	-4,430249929E-1	-5,025625229E-1
2,063332183E0	7,492374778E-1	-1,556500047E-1	-5,270375013E-1
2,083495630E0	8,087750077E-1	9,652499855E-2	-5,407875180E-1
2,103659240E0	5,491750240E-1	1,742125005E-1	-4,886749983E-1
2,123822717E0	1,287000030E-1	5,609999970E-2	-3,918749988E-1
2,143986322E0	-2,447499931E-1	-1,247124970E-1	-3,003000021E-1
2,164149798E0	-4,640625119E-1	-1,715999991E-1	-2,822875082E-1
2,184313404E0	-4,692874849E-1	-1,779250056E-1	-2,715624869E-1
2,204476858E0	-3,161124885E-1	-1,524875015E-1	-2,875125110E-1
2,224640529E0	-1,340624988E-1	-1,300749928E-1	-2,726624906E-1
2,244804135E0	-7,878749818E-2	-1,545500010E-1	-2,237125039E-1
2,264967841E0	-1,278750040E-2	-2,387000024E-1	-2,098249942E-1
2,285131231E0	1,522125006E-1	-2,641375065E-1	-2,205500007E-1
2,305294699E0	3,278000057E-1	-3,748250008E-1	-2,077624947E-1
2,325458399E0	3,372874856E-1	-6,579374671E-1	-2,513499856E-1
2,345622000E0	2,638624907E-1	-5,759875178E-1	-1,769624949E-1
2,365785462E0	1,192125008E-1	-4,663999975E-1	-1,375000030E-1
2,385949090E0	8,511249721E-2	-2,546499968E-1	-6,407500058E-2
2,406112569E0	1,203124970E-1	-1,482249945E-1	-4,276249930E-2
2,426276251E0	1,170125008E-1	-2,268749923E-1	-4,179999977E-2
2,446439879E0	2,337500080E-2	-2,066625059E-1	-6,833750010E-2
2,466603345E0	-7,878749818E-2	7,149999961E-3	-1,098624989E-1
2,486766963E0	-2,469500005E-1	1,923625022E-1	-4,606249928E-2
2,506930668E0	-4,757499993E-1	2,637250125E-1	5,513750017E-2
2,527094151E0	-6,428124905E-1	1,636250019E-1	9,336250275E-2
2,547257771E0	-6,523000002E-1	-3,107500076E-2	4,015000165E-2
2,567421228E0	-5,640249848E-1	-2,609750032E-1	-8,318749815E-2
2,587584914E0	-3,619000018E-1	-4,100250006E-1	-1,694000065E-1
2,607748514E0	-2,393874973E-1	-4,387624860E-1	-2,917749882E-1
2,627911957E0	6,324999966E-3	-4,217124879E-1	-1,237500012E-1
2,648075654E0	1,596374959E-1	-2,120250016E-1	-9,707500041E-2
2,668239022E0	2,213750035E-1	-1,407999992E-1	-8,648750186E-2
2,688402683E0	1,947000027E-1	-1,864500046E-1	-5,238749832E-2
2,708566286E0	7,768750191E-2	-2,589125037E-1	-4,069999978E-2
2,728729762E0	-8,195000142E-2	-1,971749961E-1	-2,254999988E-2
2,748893448E0	-2,799499929E-1	-2,254999988E-2	-1,247124970E-1
2,769057077E0	-4,394499958E-1	1,993750036E-2	-1,044999957E-1
2,789220549E0	-4,405499995E-1	1,220999956E-1	4,235000163E-2
2,809384173E0	-2,373249978E-1	1,135749966E-1	2,213750035E-2
2,829547623E0	-7,562500238E-2	5,183750018E-2	-7,150000334E-2
2,849711553E0	-1,277374923E-1	2,956249937E-2	-9,817499667E-2
2,869874943E0	-2,617999911E-1	-2,481874973E-1	-1,907124966E-1
2,890038404E0	-2,734875083E-1	-3,557125032E-1	-1,843875051E-1
2,910202012E0	-1,212750003E-1	-2,716999948E-1	-1,758625060E-1
2,930365688E0	5,637500063E-2	-2,546499968E-1	-2,598749995E-1
2,950529360E0	2,426874936E-1	-1,055999994E-1	-2,140875012E-1
2,970692773E0	2,756874859E-1	-8,112499863E-2	-2,035000026E-1
2,990856460E0	2,287999988E-1	-8,222500235E-2	-1,321374923E-1
3,011019922E0	1,149500012E-1	-1,449249983E-1	-3,327500075E-2
3,031183571E0	-1,484999992E-2	-1,929125041E-1	2,956249937E-2
3,051347038E0	-1,042250022E-1	-2,322375029E-1	-1,237499993E-3
3,071510665E0	-1,095874980E-1	-2,928749919E-1	1,924999990E-3
3,091674356E0	-2,763750032E-2	-1,556500047E-1	1,795749962E-1
3,111837807E0	2,241249941E-2	-5,128749833E-2	2,850374877E-1
3,132001410E0	3,932499886E-2	-3,011249937E-2	3,306874931E-1
3,152165086E0	-2,447500080E-2	-7,686249912E-2	2,689499855E-1
3,172328574E0	-1,160499975E-1	-9,817499667E-2	1,072499976E-1
3,192492189E0	-1,149500012E-1	-1,567499936E-1	-7,892499864E-2
3,212655641E0	-2,062499989E-3	-2,173874974E-1	-2,439250052E-1
3,232819323E0	2,054249942E-1	-1,610125005E-1	-1,938749999E-1
3,252983023E0	3,533749878E-1	-1,619749963E-1	-1,375000030E-1
3,273146660E0	4,160749912E-1	-1,875499934E-1	-7,892499864E-2
3,293310039E0	3,821125031E-1	-2,088624984E-1	-5,238749832E-2
3,313473722E0	3,235374987E-1	-1,130250022E-1	-5,238749832E-2
3,333637169E0	2,564375103E-1	8,483749628E-2	-6,943749636E-2
3,353800799E0	1,830125004E-1	3,041499853E-1	-1,460250020E-1
3,373964295E0	1,064250022E-1	5,212625265E-1	-2,194499969E-1
3,394127986E0	2,873750031E-2	6,510624886E-1	-1,363999993E-1
3,414291615E0	-3,506249934E-2	6,095374823E-1	4,344999790E-2
3,434455077E0	-1,032624990E-1	3,860999942E-1	1,912624985E-1
3,454618745E0	-1,043625027E-1	4,331250116E-2	2,594625056E-1
3,474782385E0	-6,324999966E-3	-2,769249976E-1	2,083124965E-1
3,494945843E0	1,574375033E-1	-2,194499969E-1	9,982500225E-2
3,515109431E0	3,926999867E-1	-3,849999979E-2	7,149999961E-3
3,535273121E0	5,278624892E-1	1,636250019E-1	-5,664999783E-2
3,555436594E0	4,820750058E-1	2,967250049E-1	-6,517499685E-2
3,575600198E0	2,958999872E-1	3,169375062E-1	-1,196249947E-2
3,595763651E0	-3,162499983E-3	2,327875048E-1	9,666249901E-2
3,615927345E0	-2,681249976E-1	5,939999968E-2	2,870999873E-1
3,636091033E0	-3,852750063E-1	-1,801249981E-1	3,818374872E-1
3,656254410E0	-3,224374950E-1	-3,152875006E-1	3,722124994E-1
3,676418336E0	-8,401250094E-2	-3,525500000E-1	2,711499929E-1
3,696581721E0	1,926375031E-1	-1,981374919E-1	1,040875018E-1
3,716745432E0	4,288625121E-1	1,539999992E-1	6,888750196E-2
3,736908894E0	4,800125062E-1	4,274874926E-1	6,256250292E-2
3,757072511E0	3,830749989E-1	5,094375014E-1	1,764124930E-1
3,777235973E0	2,512125075E-1	2,924624979E-1	2,945249975E-1
3,797399573E0	1,639000028E-1	-4,812499881E-2	3,243624866E-1
3,817563274E0	1,904374957E-1	-3,045625091E-1	2,540999949E-1
3,837726966E0	3,671250045E-1	-3,779875040E-1	1,658249944E-1
3,857890356E0	5,693874955E-1	-2,919124961E-1	7,851249725E-2
3,878054057E0	6,502375007E-1	-8,428750187E-2	3,918749839E-2
3,898217754E0	3,724874854E-1	1,787500083E-2	7,287499961E-3
3,918381134E0	-3,607999980E-1	-7,150000334E-2	-8,002500236E-2
3,938544845E0	-1,167374969E0	-8,648750186E-2	-5,555000156E-2
3,958708309E0	-1,552649975E0	1,328250021E-1	1,189374998E-1
3,978871929E0	-1,414324999E0	3,338499963E-1	2,679874897E-1
3,999035615E0	-8,321499825E-1	2,179374993E-1	2,051499933E-1
4,019199081E0	-1,245749965E-1	3,492499888E-2	-6,201250106E-2
4,039362678E0	3,500750065E-1	4,441250116E-2	-3,238124847E-1
4,059526134E0	6,396499872E-1	1,328250021E-1	-4,908750057E-1
4,079689834E0	7,737125158E-1	1,880999953E-1	-4,993999898E-1
4,099853434E0	7,342500091E-1	9,652499855E-2	-3,684999943E-1
4,120017115E0	4,800125062E-1	-1,289750040E-1	-2,481874973E-1
4,140180572E0	1,319999993E-1	-3,833499849E-1	-1,971749961E-1
4,160344255E0	-1,852124929E-1	-4,376625121E-1	-1,896124929E-1
4,180507875E0	-3,810124993E-1	-3,546124995E-1	-1,790249944E-1
4,200671322E0	-4,820750058E-1	-1,727000028E-1	-1,534499973E-1
4,220834952E0	-5,171374679E-1	1,434125006E-1	-1,971749961E-1
4,240998649E0	-6,226000190E-1	5,583875179E-1	-2,780250013E-1
4,261162097E0	-6,353874803E-1	9,926124811E-1	-2,088624984E-1
4,281325702E0	-4,214375019E-1	9,851874709E-1	-1,545500010E-1
4,301489161E0	1,106875017E-1	6,126999855E-1	-1,194875017E-1
4,321652837E0	6,917625070E-1	3,019500077E-1	-2,428250015E-1
4,341816448E0	1,000312448E0	6,778749824E-2	-4,684624970E-1
4,361979906E0	1,097249985E0	8,249999955E-3	-6,685249805E-1
4,382143522E0	1,013100028E0	6,888750196E-2	-7,536374927E-1
4,402307303E0	7,077124715E-1	2,444749922E-1	-7,249000072E-1
4,422470928E0	2,628999949E-1	5,296499729E-1	-6,143500209E-1
4,442634380E0	-2,171124965E-1	6,861249804E-1	-3,449875116E-1
4,462798077E0	-6,353874803E-1	3,679499924E-1	-1,033999994E-1
4,482961688E0	-9,641500115E-1	-1,630750000E-1	4,771250114E-2
4,503125390E0	-1,048300028E0	-4,993999898E-1	2,846249938E-2
4,523288847E0	-8,130375147E-1	-4,749250114E-1	-6,297499686E-2
4,543452462E0	-2,734875083E-1	-2,311374992E-1	-1,098624989E-1
4,563615914E0	3,224374950E-1	-7,576250285E-2	-1,619749963E-1
4,583779625E0	6,565625072E-1	-7,796250284E-2	-2,162874937E-1
4,603943020E0	7,694500089E-1	-2,290749997E-1	-2,950749993E-1
4,624106717E0	6,969875097E-1	-4,738250077E-1	-3,110249937E-1
4,644270317E0	5,246999860E-1	-6,164125204E-1	-3,258749843E-1
4,664433784E0	2,447499931E-1	-5,631999969E-1	-3,460874856E-1
4,684597452E0	-8,511249721E-2	-2,056999952E-1	-3,939374983E-1
4,704761087E0	-3,139125109E-1	3,764750063E-1	-3,779875040E-1
4,724924560E0	-3,491125107E-1	6,095374823E-1	-1,929125041E-1
4,745088262E0	-2,809124887E-1	1,487749964E-1	6,036249921E-2
4,765251899E0	-3,383874893E-1	-5,249750018E-1	9,129999578E-2
4,785415363E0	-3,331624866E-1	-7,324625254E-1	-2,901249938E-2
4,805579042E0	-9,047500044E-2	-4,962374866E-1	-3,533750027E-2
4,825742434E0	2,447499931E-1	-2,492875010E-1	3,588749841E-2
4,845906134E0	4,075500071E-1	-2,620750070E-1	-2,997500077E-2
4,866069821E0	3,246375024E-1	-3,535124958E-1	-1,875499934E-1
4,886233437E0	1,531749964E-1	-4,812499881E-1	-2,748624980E-1
4,906397110E0	3,299999982E-2	-4,844124913E-1	-2,567124963E-1
4,926560485E0	-1,841125041E-1	-2,268749923E-1	-1,608749926E-1
4,946724196E0	-5,671874881E-1	2,583625019E-1	-7,259999961E-2
4,966887663E0	-9,057124853E-1	6,723750234E-1	-9,762499481E-3
4,987051280E0	-9,609875083E-1	4,148375094E-1	1,178374961E-1
5,007214961E0	-7,396125197E-1	-1,821874976E-1	2,253624946E-1
5,027378644E0	-4,661250114E-1	-3,067624867E-1	1,827374995E-1
5,047542062E0	-2,245374918E-1	-9,391249716E-2	8,057499677E-2
5,067705749E0	3,506249934E-2	1,604624987E-1	1,361249946E-2
5,087869228E0	2,128500044E-1	2,700499892E-1	-1,938750036E-2
5,108032932E0	2,299000025E-1	2,583625019E-1	-3,217500076E-2
5,128196544E0	1,394249946E-1	1,243000031E-1	5,087499972E-3
5,148360221E0	3,726249933E-2	-4,276249930E-2	5,293750018E-2
5,168523658E0	-1,084875017E-1	-7,576250285E-2	3,808749840E-2
5,188687291E0	-2,660624981E-1	7,741250098E-2	3,272499889E-2
5,208850757E0	-3,405874968E-1	2,094125003E-1	9,556250274E-2
5,229014501E0	-3,565374911E-1	1,146750003E-1	2,051499933E-1
5,249178125E0	-3,639625013E-1	-1,439625025E-1	2,296250015E-1
5,269341584E0	-3,469125032E-1	-2,418625057E-1	1,254000068E-1
5,289505279E0	-2,085874975E-1	-2,268749923E-1	9,349999949E-3
5,309668929E0	3,932499886E-2	-2,035000026E-1	-7,686249912E-2
5,329832621E0	2,202749997E-1	-1,024374962E-1	-1,513874978E-1
5,349996081E0	2,043250054E-1	5,087500066E-2	-1,960749924E-1
5,370159699E0	1,010624990E-1	1,126125008E-1	-2,088624984E-1
5,390323345E0	1,223749965E-1	2,213750035E-2	-2,216500044E-1
5,410486827E0	3,107500076E-1	-1,322750002E-1	-2,248124927E-1
5,430650422E0	5,565999746E-1	-2,099625021E-1	-2,353999913E-1
5,450813862E0	6,725124717E-1	-8,112499863E-2	-2,226125002E-1
5,470977523E0	5,438125134E-1	2,040500045E-1	-2,014375031E-1
5,491141151E0	1,766874939E-1	3,903625011E-1	-1,704999954E-1
5,511304606E0	-2,968625128E-1	4,690124989E-1	-8,648750186E-2
5,531468311E0	-6,767749786E-1	4,190999866E-1	1,029874980E-1
5,551631926E0	-6,863999963E-1	-5,128749833E-2	3,903625011E-1
5,571795596E0	-4,257000089E-1	-6,323624849E-1	4,563624859E-1
5,591959034E0	-1,234750003E-1	-7,057874799E-1	2,402125001E-1
5,612122656E0	1,075249985E-1	-3,492499888E-1	1,897500083E-2
5,632286359E0	2,543750107E-1	1,200374961E-1	-3,849999979E-2
5,652450058E0	2,011625022E-1	3,179000020E-1	2,213750035E-2
5,672613433E0	-5,857500061E-2	1,551000029E-1	1,220999956E-1
5,692777142E0	-2,947999835E-1	-3,429250121E-1	2,062499970E-1
5,712940599E0	-4,384875000E-1	-7,441499829E-1	1,380500048E-1
5,733104303E0	-5,224999785E-1	-6,462500095E-1	-4,386249930E-2
5,753267921E0	-4,564999938E-1	-1,322750002E-1	-1,769624949E-1
5,773431596E0	-2,310000062E-1	3,838999867E-1	-2,098249942E-1
5,793595054E0	-5,362499971E-3	5,446375012E-1	-1,641750038E-1
5,813758660E0	5,431250110E-2	3,764750063E-1	-1,406625062E-1
5,833922141E0	-8,084999770E-2	7,204999775E-2	-1,694000065E-1
5,854085841E0	-1,436875015E-1	-2,003374994E-1	-1,502874941E-1
5,874249523E0	6,283749640E-2	-3,493874967E-1	-9,501250088E-2
5,894412908E0	3,075875044E-1	-3,418250084E-1	-1,130250022E-1
5,914576487E0	4,277625084E-1	-1,269125044E-1	-1,832875013E-1
5,934740151E0	3,821125031E-1	8,167500049E-2	-1,715999991E-1
5,954903626E0	2,245374918E-1	9,226249903E-2	-7,369999588E-2
5,975067552E0	3,299999982E-2	4,331250116E-2	4,441250116E-2
5,995230927E0	-9,157499671E-2	-5,128749833E-2	7,424999774E-2
6,015394615E0	-3,932499886E-2	-1,992374957E-1	-2,364999987E-2
6,035558086E0	1,362625062E-1	-2,046000063E-1	-1,727000028E-1
6,055721720E0	2,501125038E-1	-2,337499987E-3	-1,896124929E-1
6,075885175E0	2,671625018E-1	1,454750001E-1	-9,913749993E-2
6,096048893E0	1,223749965E-1	2,040500045E-1	-7,150000334E-2
6,116212511E0	-2,256374955E-1	3,360500038E-1	-8,538749814E-2
6,136376196E0	-5,948249698E-1	4,424749911E-1	-1,196249947E-2
6,156539654E0	-8,056125045E-1	3,966875076E-1	1,721500009E-1
6,176703341E0	-6,556000113E-1	4,235000163E-2	3,232625127E-1
6,196866728E0	-1,627999991E-1	-3,546124995E-1	3,009875119E-1
6,217030403E0	3,756499887E-1	-4,675000012E-1	1,220999956E-1
6,237194010E0	7,746750116E-1	-2,684000134E-1	-1,828750037E-2
6,257357487E0	9,120374918E-1	4,235000163E-2	-1,024374962E-1
6,277521177E0	7,683500051E-1	2,604250014E-1	-9,171249717E-2
6,297684783E0	4,288625121E-1	3,253250122E-1	2,529999986E-2
6,317848480E0	-1,814999990E-2	2,891624868E-1	1,700875014E-1
6,338011870E0	-3,702875078E-1	1,891999990E-1	3,158375025E-1
6,358175573E0	-5,235999823E-1	-2,584999986E-2	3,988874853E-1
6,378339260E0	-4,373874962E-1	-2,259124964E-1	3,531000018E-1
6,398502971E0	-2,554749846E-1	-1,843875051E-1	1,508374959E-1
6,418666370E0	-1,212750003E-1	5,183750018E-2	-6,723749638E-2
6,438830057E0	-7,342500240E-2	3,647874892E-1	-1,599124968E-1
6,458993536E0	-1,319999993E-1	5,594875216E-1	-1,417624950E-1
6,479157160E0	-2,723875046E-1	4,892250001E-1	-5,444999784E-2
6,499320865E0	-3,554374874E-1	1,029874980E-1	2,749999985E-2
6,519484312E0	-2,065249979E-1	-3,269749880E-1	4,441250116E-2
6,539647905E0	1,032624990E-1	-5,845124722E-1	-1,938750036E-2
6,559811601E0	4,809750021E-1	-6,280999780E-1	-1,566125005E-1
6,579975045E0	6,396499872E-1	-3,695999980E-1	-3,535124958E-1
6,600138637E0	4,937624931E-1	1,167374998E-1	-5,142499804E-1
6,620302312E0	1,724250019E-1	6,456999779E-1	-5,057250261E-1
6,640465745E0	-2,000624985E-1	9,809250236E-1	-2,960374951E-1
6,660629348E0	-4,937624931E-1	8,138625026E-1	1,141249947E-2
6,680793023E0	-5,341874957E-1	-4,069999978E-2	2,264624983E-1
6,700956495E0	-3,735874891E-1	-1,030424953E0	1,306249946E-1
6,721120201E0	-1,170125008E-1	-1,273112535E0	-1,545500010E-1
6,741283838E0	1,138499975E-1	-7,143124938E-1	-3,993000090E-1
6,761447323E0	2,681249976E-1	2,668874860E-1	-4,547125101E-1
6,781611024E0	3,309625089E-1	7,669749856E-1	-3,460874856E-1
6,801774668E0	1,787499934E-1	6,818624735E-1	-2,140875012E-1
6,821938361E0	-2,267374992E-1	2,763749957E-1	-1,311749965E-1
6,842101773E0	-5,512375236E-1	-1,854874939E-1	-6,091250107E-2
6,862265558E0	-5,011875033E-1	-5,313000083E-1	-1,237499993E-3
6,882429264E0	-2,065249979E-1	-5,398250222E-1	-6,091250107E-2
6,902592644E0	1,394249946E-1	-2,418625057E-1	-2,173874974E-1
6,922756327E0	5,139750242E-1	-2,158750035E-2	-2,993375063E-1
6,942920014E0	7,204999924E-1	-5,128749833E-2	-3,238124847E-1
6,963083616E0	6,619250178E-1	-8,758749813E-2	-3,503499925E-1
6,983247073E0	3,650625050E-1	3,272499889E-2	-3,238124847E-1
7,003410674E0	-1,168750040E-2	2,657875121E-1	-2,300374955E-1
7,023574352E0	-3,415499926E-1	4,945875108E-1	-8,538749814E-2
7,043738044E0	-5,130124688E-1	3,935250044E-1	5,829999968E-2
7,063901419E0	-3,639625013E-1	-1,471250057E-1	7,218749821E-2
7,084064883E0	-1,297999918E-1	-6,249374747E-1	-6,833750010E-2
7,104228587E0	-1,032624990E-1	-5,259374976E-1	-2,737624943E-1
7,124391945E0	-1,329624951E-1	-9,281250089E-2	-3,620375097E-1
7,144555625E0	3,932499886E-2	1,615625024E-1	-2,854500115E-1
7,164719223E0	2,958999872E-1	-9,899999946E-3	-1,067000031E-1
7,184882907E0	4,353249967E-1	-2,822875082E-1	4,551250115E-2
7,205046365E0	2,851749957E-1	-3,748250008E-1	-2,681249939E-2
7,225210006E0	4,895000160E-2	-2,439250052E-1	-1,300749928E-1
7,245373711E0	-1,053249985E-1	1,445125043E-1	-1,354375035E-1
7,265537154E0	-1,362625062E-1	5,787374973E-1	-6,201250106E-2
7,285700747E0	-9,790000319E-2	6,329125166E-1	4,661250114E-2
7,305864237E0	-1,704999991E-2	2,839374840E-1	1,231999993E-1
7,326027910E0	-7,136250287E-2	-1,067000031E-1	5,197500065E-2
7,346191634E0	-6,599999964E-2	-1,599124968E-1	3,024999984E-3
7,366355254E0	1,297999918E-1	-9,171249717E-2	3,918749839E-2
7,386518747E0	3,363249898E-1	-3,107500076E-2	3,698749840E-2
7,406682338E0	3,884375095E-1	-1,306249946E-2	-2,571249940E-2
7,426845776E0	3,926999867E-1	-2,584999986E-2	-5,664999783E-2
7,447009490E0	3,170749843E-1	-4,606249928E-2	-8,318749815E-2
7,467173129E0	1,872749925E-1	4,661250114E-2	-8,744999766E-2
7,487336833E0	2,653750032E-2	1,955250055E-1	-8,744999766E-2
7,507500300E0	-1,308999956E-1	3,722124994E-1	-2,364999987E-2
7,527663919E0	-2,532750070E-1	4,211624861E-1	9,762500226E-2
7,547827615E0	-3,107500076E-1	2,924624979E-1	1,934625059E-1
7,567991065E0	-3,320625126E-1	-4,386249930E-2	1,615625024E-1
7,588154727E0	-3,150124848E-1	-2,003374994E-1	5,719999969E-2
7,608318204E0	-2,351250052E-1	-1,482249945E-1	-2,048750035E-2
7,628481884E0	3,162499983E-3	-4,812499881E-2	8,249999955E-3
7,648645571E0	2,384250015E-1	-9,817499667E-2	8,249999955E-3
7,668808930E0	2,766500115E-1	-1,599124968E-1	-8,002500236E-2
7,688972536E0	2,054249942E-1	-1,610125005E-1	-1,513874978E-1
7,709136223E0	5,321250111E-2	-1,215500012E-1	-1,545500010E-1
7,729299674E0	-8,621250093E-2	2,887499984E-3	-1,289750040E-1
7,749463351E0	-1,926375031E-1	2,147749960E-1	-9,391249716E-2
7,769626956E0	-2,501125038E-1	2,785750031E-1	-6,723749638E-2
7,789790415E0	-2,905375063E-1	1,647250056E-1	-1,828750037E-2
7,809954120E0	-2,256374955E-1	-2,364999987E-2	3,024999984E-3
7,830117721E0	-3,299999982E-2	-5,664999783E-2	-1,938750036E-2
7,850281218E0	1,522125006E-1	-1,828750037E-2	-5,499999970E-3
7,870444914E0	2,436500043E-1	-3,107500076E-2	9,349999949E-3
7,890608529E0	2,351250052E-1	-7,369999588E-2	2,419999987E-2
7,910771978E0	1,058750041E-2	-6,599999964E-3	1,251249947E-2
7,930935661E0	-3,011249900E-1	1,721500009E-1	7,149999961E-3
7,951099295E0	-4,171749949E-1	3,849999905E-1	6,036249921E-2
7,971262986E0	-3,799124956E-1	3,169375062E-1	1,498750001E-1
7,991426456E0	-2,000624985E-1	-7,796250284E-2	1,753125042E-1
8,011590067E0	-2,062499989E-3	-4,014999866E-1	6,256250292E-2
8,031753769E0	1,042250022E-1	-3,141874969E-1	-6,627500057E-2
8,051917221E0	2,149125040E-1	-5,637499969E-3	-1,385999918E-1
8,072080836E0	3,309625089E-1	2,114749998E-1	-1,480875015E-1
8,092244300E0	2,990624905E-1	2,424124926E-1	-1,236125007E-1
8,112407997E0	7,878749818E-2	1,817750037E-1	-8,222500235E-2
8,132571636E0	-1,809500009E-1	2,199999988E-1	8,249999955E-4
8,152735322E0	-2,085874975E-1	2,806375027E-1	1,135749966E-1
8,172898785E0	-1,425874978E-1	1,795749962E-1	1,945624948E-1
8,193062401E0	-1,607374996E-1	5,939999968E-2	1,551000029E-1
8,213225848E0	-1,436875015E-1	-1,306249946E-2	1,178374961E-1
8,233389449E0	-6,173750013E-2	4,867500067E-2	1,423124969E-1
8,253553131E0	-6,916250288E-2	1,189374998E-1	1,465750039E-1
8,273716832E0	-1,021625027E-1	1,412124932E-1	1,625249982E-1
8,293880206E0	-8,621250093E-2	-2,048750035E-2	1,817750037E-1
8,314043887E0	-5,211250111E-2	-2,035000026E-1	1,220999956E-1
8,334207333E0	-1,414874941E-1	-9,927500039E-2	5,513750017E-2
8,354370949E0	-2,117500007E-1	1,891999990E-1	3,588749841E-2
8,374534726E0	-2,054249942E-1	3,562625051E-1	3,698749840E-2
8,394698101E0	-2,000624985E-1	2,594625056E-1	5,087499972E-3
8,414861703E0	-1,425874978E-1	1,251249947E-2	-6,091250107E-2
8,435025393E0	1,099999994E-3	-1,491875052E-1	-1,321374923E-1
8,455188855E0	8,195000142E-2	-2,158750035E-2	-1,673374921E-1
8,475352523E0	6,806249917E-2	1,784749925E-1	-1,694000065E-1
8,495516125E0	1,704999991E-2	1,615625024E-1	-1,119249985E-1
8,515679615E0	-1,388750039E-2	8,057499677E-2	-5,871250108E-2
8,535843242E0	-1,809500009E-1	9,872499853E-2	-5,444999784E-2
8,556006909E0	-2,267374992E-1	1,274625063E-1	-3,423750028E-2
8,576170376E0	-1,021625027E-1	-1,622499898E-2	-1,732499897E-2
8,596333998E0	1,149500012E-1	-2,014375031E-1	-3,217500076E-2
8,616497464E0	2,426874936E-1	-3,045625091E-1	-1,152250022E-1
8,636661163E0	3,246375024E-1	-2,589125037E-1	-2,205500007E-1
8,656824791E0	2,393874973E-1	-1,828750037E-2	-2,673000097E-1
8,676988500E0	5,637500063E-2	3,115749955E-1	-2,587749958E-1
8,697151951E0	-1,872749925E-1	5,637499690E-1	-2,120250016E-1
8,717315568E0	-4,629625082E-1	6,371750236E-1	-1,354375035E-1
8,737479260E0	-6,852999926E-1	4,615874887E-1	8,249999955E-4
8,757642650E0	-5,916625261E-1	-1,237500012E-1	1,168750003E-1
8,777806353E0	-2,703250051E-1	-7,717875242E-1	9,762500226E-2
8,797970044E0	7,232499868E-2	-9,644249678E-1	-8,112499863E-2
8,818133443E0	3,713875115E-1	-8,153749704E-1	-2,481874973E-1
8,838297168E0	5,554999709E-1	-4,376625121E-1	-3,822500110E-1
8,858460646E0	4,874374866E-1	8,277499676E-2	-4,982999861E-1
8,878624252E0	1,798499972E-1	4,445374906E-1	-5,248374939E-1
8,898788034E0	-1,288374960E-1	5,286874771E-1	-3,907749951E-1
8,918951424E0	-3,415499926E-1	2,679874897E-1	-2,088624984E-1
8,939115130E0	-3,224374950E-1	-1,875499934E-1	-1,258125007E-1
8,959278498E0	-1,127500013E-1	-5,451874733E-1	-1,810874939E-1
8,979442195E0	2,766500115E-1	-5,259374976E-1	-2,971374989E-1
8,999605880E0	6,023874879E-1	-3,366000056E-1	-3,982000053E-1
9,019769491E0	6,767749786E-1	-7,053750008E-2	-4,334000051E-1
9,039932940E0	5,054500103E-1	2,051499933E-1	-3,865124881E-1
9,060096641E0	2,384250015E-1	1,903000027E-1	-2,418625057E-1
9,080260041E0	5,211250111E-2	-5,884999782E-2	-1,044999957E-1
9,100423737E0	-4,152499884E-2	-4,142875075E-1	-4,606249928E-2
9,120587339E0	-1,911249943E-2	-4,834499955E-1	-5,981250107E-2
9,140751040E0	1,203124970E-1	-3,610749841E-1	-4,812499881E-2
9,160914464E0	2,554749846E-1	-3,280749917E-1	-4,606249928E-2
9,181078163E0	1,095874980E-1	-4,823499918E-1	-3,107500076E-2
9,201241770E0	-2,106499970E-1	-6,983624697E-1	5,829999968E-2
9,221405216E0	-3,596999943E-1	-7,185750008E-1	2,008875012E-1
9,241568820E0	-3,500750065E-1	-5,398250222E-1	2,563000023E-1
9,261732481E0	-2,575374842E-1	-1,960749924E-1	1,795749962E-1
9,281895924E0	1,278750040E-2	5,609999970E-2	3,066249937E-2
9,302059548E0	3,926999867E-1	7,851249725E-2	-1,321374923E-1
9,322223232E0	5,076500177E-1	1,530375034E-1	-2,598749995E-1
9,342386914E0	3,810124993E-1	2,540999949E-1	-2,194499969E-1
9,362550371E0	1,255374998E-1	1,923625022E-1	-7,259999961E-2
9,382713986E0	-5,211250111E-2	-6,943749636E-2	6,256250292E-2
9,402877678E0	-1,911249943E-2	-4,014999866E-1	1,274625063E-1
9,423041140E0	1,308999956E-1	-5,759875178E-1	6,998749822E-2
9,443204755E0	2,351250052E-1	-4,844124913E-1	1,044999994E-2
9,463368448E0	2,595999837E-1	-2,387000024E-1	3,987499978E-3
9,483531909E0	2,521750033E-1	1,993750036E-2	9,129999578E-2
9,503695525E0	2,756874859E-1	7,631249726E-2	2,008875012E-1
9,523859212E0	2,330625057E-1	-9,391249716E-2	2,455749959E-1
9,544022698E0	8,401250094E-2	-1,407999992E-1	2,296250015E-1
9,564186089E0	-4,578749835E-2	7,741250098E-2	2,785750031E-1
9,584349801E0	-3,162499983E-3	3,264249861E-1	3,679499924E-1
9,604513448E0	1,436875015E-1	3,860999942E-1	4,031499922E-1
9,624676900E0	3,671250045E-1	1,732500046E-1	3,914625049E-1
9,644840536E0	5,108125210E-1	-9,171249717E-2	3,349500000E-1
9,665004236E0	5,321249962E-1	-1,588124931E-1	2,881999910E-1
9,685167708E0	4,533374906E-1	-3,959999979E-2	2,870999873E-1
9,705331356E0	1,724250019E-1	1,924999990E-3	3,095124960E-1
9,725495058E0	-2,862749994E-1	-8,964999765E-2	3,679499924E-1
9,745658510E0	-6,565625072E-1	-2,833875120E-1	4,233624935E-1
9,765822131E0	-8,278874755E-1	-3,163875043E-1	3,903625011E-1
9,785985561E0	-7,800375223E-1	-3,959999979E-2	2,774749994E-1
9,806149246E0	-4,831750095E-1	3,232625127E-1	1,380500048E-1
9,826312842E0	-5,362499971E-3	3,946250081E-1	1,567500085E-2
9,846476311E0	3,660250008E-1	2,147749960E-1	-1,258125007E-1
9,866639926E0	4,842749834E-1	4,757500067E-2	-2,248124927E-1
9,886803614E0	4,394499958E-1	2,103750035E-2	-2,364999950E-1
9,906967038E0	2,947999835E-1	1,423124969E-1	-1,694000065E-1
9,927130654E0	6,173750013E-2	2,817375064E-1	-9,501250088E-2
9,947294312E0	-1,979999989E-1	3,445749879E-1	-3,959999979E-2
9,967457784E0	-3,778499961E-1	3,381125033E-1	1,251249947E-2
9,987621405E0	-4,724499881E-1	3,093749881E-1	6,572499871E-2
1,000778512E1	-4,618625045E-1	2,987875044E-1	9,872499853E-2
1,002794861E1	-3,682250082E-1	1,551000029E-1	1,029874980E-1
1,004811230E1	-2,085874975E-1	-8,758749813E-2	8,813749999E-2
1,006827589E1	-9,157499671E-2	-2,450249940E-1	3,176249936E-2
1,008843938E1	-1,388750039E-2	-2,333374918E-1	-5,348749831E-2
1,010860299E1	6,173750013E-2	-1,237500012E-1	-1,300749928E-1
1,012876669E1	7,452499866E-2	7,535000145E-2	-1,843875051E-1
1,014893007E1	5,101250112E-2	1,551000029E-1	-1,810874939E-1
1,016909377E1	1,223749965E-1	4,977500066E-2	-1,502874941E-1
1,018925722E1	1,958000064E-1	-1,588124931E-1	-1,619749963E-1
1,020942080E1	2,436500043E-1	-2,800875008E-1	-2,194499969E-1
1,022958447E1	3,118500113E-1	-2,279749960E-1	-2,789874971E-1
1,024974794E1	3,224374950E-1	-8,648750186E-2	-3,162499964E-1
1,026991156E1	1,787499934E-1	1,582625061E-1	-2,908124924E-1
1,029007502E1	-1,425874978E-1	4,402749836E-1	-1,971749961E-1
1,031023872E1	-4,905999899E-1	5,190625191E-1	-7,369999588E-2
1,033040233E1	-6,938250065E-1	3,540624976E-1	1,677500084E-2
1,035056579E1	-6,118749976E-1	2,956249937E-2	-1,938750036E-2
1,037072942E1	-3,161124885E-1	-1,747625023E-1	-1,194875017E-1
1,039089313E1	2,021249942E-2	-1,417624950E-1	-1,896124929E-1
1,041105660E1	2,606999874E-1	-8,332499862E-2	-1,992374957E-1
1,043122019E1	2,990624905E-1	-3,643750027E-2	-1,684374958E-1
1,045138367E1	1,915374994E-1	9,226249903E-2	-9,817499667E-2
1,047154736E1	1,010624990E-1	1,359875053E-1	4,015000165E-2
1,049171097E1	2,128500044E-1	-7,576250285E-2	1,551000029E-1
1,051187444E1	3,863750100E-1	-2,961750031E-1	1,530375034E-1
1,053203806E1	5,714499950E-1	-3,812874854E-1	7,535000145E-2
1,055220150E1	5,853375196E-1	-2,800875008E-1	6,187499966E-3
1,057236518E1	3,852750063E-1	8,057499677E-2	2,213750035E-2
1,059252880E1	3,836249933E-2	5,913875103E-1	1,317249984E-1
1,061269248E1	-3,086875081E-1	9,405000210E-1	3,019500077E-1
1,063285594E1	-5,150749683E-1	9,202874899E-1	4,723125100E-1
1,065301955E1	-5,278624892E-1	4,402749836E-1	5,286874771E-1
1,067318324E1	-3,617624938E-1	-1,077999994E-1	4,350500107E-1
1,069334670E1	-1,308999956E-1	-2,109249979E-1	2,934249938E-1
1,071351032E1	2,557500079E-2	9,129999578E-2	2,403499931E-1
1,073367379E1	9,363749623E-2	2,455749959E-1	2,563000023E-1
1,075383741E1	2,763750032E-2	5,719999969E-2	2,413125038E-1
1,077400109E1	-1,383250058E-1	-1,311749965E-1	2,008875012E-1
1,079416457E1	-2,299000025E-1	-1,599124968E-1	1,838375032E-1
1,081432818E1	-1,883749962E-1	-1,013374999E-1	1,647250056E-1
1,083449189E1	-9,899999946E-2	-1,622499898E-2	7,961250097E-2
1,085465535E1	-1,058750041E-2	6,366249919E-2	-3,217500076E-2
1,087481904E1	5,211250111E-2	1,040875018E-1	-1,109625027E-1
1,089498247E1	7,136250287E-2	7,535000145E-2	-1,141249985E-1
1,091514616E1	7,548750192E-2	3,272499889E-2	-1,152250022E-1
1,093530975E1	1,670625061E-1	3,987499978E-3	-1,098624989E-1
1,095547321E1	2,968625128E-1	-1,087625027E-1	-9,817499667E-2
1,097563680E1	3,289000094E-1	-1,875499934E-1	-1,204499975E-1
1,099580025E1	1,542750001E-1	-6,599999964E-3	-2,450249940E-1
1,101596397E1	-8,937499672E-2	3,668499887E-1	-3,280749917E-1
1,103612758E1	-2,723875046E-1	7,330124974E-1	-2,183499932E-1
1,105629102E1	-3,576374948E-1	7,766000032E-1	4,344999790E-2
1,107645471E1	-4,416500032E-1	3,701499999E-1	2,105125040E-1
1,109661833E1	-4,373874962E-1	-6,943749636E-2	1,997874975E-1
1,111678202E1	-1,894749999E-1	-1,630750000E-1	1,189374998E-1
1,113694543E1	2,820124924E-1	7,108750194E-2	4,551250115E-2
1,115710889E1	5,757125020E-1	2,518999875E-1	-7,699999958E-3
1,117727256E1	5,842375159E-1	3,093749881E-1	-6,407500058E-2
1,119743592E1	4,214375019E-1	2,860000134E-1	-4,386249930E-2
1,121759961E1	3,181749880E-1	3,190000057E-1	1,146750003E-1
1,123776330E1	2,063875049E-1	2,211000025E-1	2,583625019E-1
1,125792694E1	-4,042499885E-2	5,087500066E-2	3,508999944E-1
1,127809039E1	-1,681624949E-1	-2,364999987E-2	3,679499924E-1
1,129825409E1	-2,458499968E-1	7,315000147E-2	3,275249898E-1
1,131841746E1	-3,830749989E-1	2,072124928E-1	2,455749959E-1
1,133858108E1	-5,224999785E-1	3,190000057E-1	2,040500045E-1
1,135874479E1	-5,076500177E-1	4,296875000E-1	2,540999949E-1
1,137890828E1	-3,064875007E-1	4,413749874E-1	2,967250049E-1
1,139907199E1	-1,447875053E-1	1,306249946E-1	2,466749996E-1
1,141923559E1	-1,106875017E-1	-8,648750186E-2	1,445125043E-1
1,143939895E1	-1,594999991E-2	3,382499889E-2	6,682500243E-2
1,145956264E1	6,806249917E-2	2,136749923E-1	-5,499999970E-3
1,147972610E1	1,351625025E-1	2,094125003E-1	-1,622499898E-2
1,149988972E1	1,607374996E-1	8,910000324E-2	-3,107500076E-2
1,152005320E1	-4,152499884E-2	-1,130250022E-1	-6,297499686E-2
1,154021687E1	-2,532750070E-1	-1,354375035E-1	-9,075000137E-2
1,156038048E1	-2,809124887E-1	4,441250116E-2	-7,259999961E-2
1,158054394E1	-3,522749841E-1	6,366249919E-2	-9,927500039E-2
1,160070756E1	-4,065875113E-1	-5,981250107E-2	-1,769624949E-1
1,162087123E1	-2,447499931E-1	-3,130874932E-1	-3,045625091E-1
1,164103472E1	2,337500080E-2	-5,164499879E-1	-3,961375058E-1
1,166119834E1	1,798499972E-1	-4,354625046E-1	-4,397250116E-1
1,168136179E1	2,299000025E-1	-2,322375029E-1	-4,897750020E-1
1,170152541E1	1,937374920E-1	-9,707500041E-2	-5,003625154E-1
1,172168886E1	1,203124970E-1	-2,901249938E-2	-4,556750059E-1
1,174185280E1	5,637500063E-2	-2,791249938E-2	-3,876124918E-1
1,176201619E1	-3,506249934E-2	-1,396999955E-1	-3,833499849E-1
1,178217988E1	-1,234750003E-1	-1,652749926E-1	-3,865124881E-1
1,180234335E1	-1,787499934E-1	-1,306249946E-2	-3,737249970E-1
1,182250696E1	-1,021625027E-1	3,253250122E-1	-2,939749956E-1
1,184267064E1	8,195000142E-2	4,190999866E-1	-2,046000063E-1
1,186283412E1	1,639000028E-1	2,242625058E-1	-2,014375031E-1
1,188299774E1	5,953750014E-2	-1,086249948E-2	-2,673000097E-1
1,190316118E1	-6,063750014E-2	-5,981250107E-2	-2,950749993E-1
1,192332479E1	-5,747500062E-2	1,168750003E-1	-1,929125041E-1
1,194348847E1	1,287000030E-1	2,179374993E-1	-6,297499686E-2
1,196365193E1	2,032250017E-1	7,424999774E-2	1,251249947E-2
1,198381554E1	1,755875051E-1	-1,897500008E-1	-4,537499975E-3
1,200397892E1	1,564749926E-1	-2,960374951E-1	-4,922499880E-2
1,202414269E1	1,776500046E-1	-2,056999952E-1	-8,648750186E-2
1,204430629E1	1,607374996E-1	-4,276249930E-2	-9,597499669E-2
1,206446969E1	1,394249946E-1	1,903000027E-1	-1,002374962E-1
1,208463317E1	-4,688749835E-2	3,913249969E-1	-1,247124970E-1
1,210479679E1	-1,872749925E-1	5,520625114E-1	-1,204499975E-1
1,212496024E1	-3,289000094E-1	6,393749714E-1	-7,576250285E-2
1,214512393E1	-3,064875007E-1	5,552250147E-1	1,471249945E-2
1,216528754E1	-9,157499671E-2	1,465750039E-1	9,872499853E-2
1,218545102E1	-1,099999994E-3	-2,960374951E-1	6,998749822E-2
1,220561463E1	7,342500240E-2	-4,376625121E-1	-2,158750035E-2
1,222577812E1	2,287999988E-1	-4,100250006E-1	-4,179999977E-2
1,224594180E1	3,990249932E-1	-2,865499854E-1	-4,386249930E-2
1,226610519E1	3,565374911E-1	-2,237125039E-1	-1,406625062E-1
1,228626888E1	1,192125008E-1	-6,517499685E-2	-2,131250054E-1
1,230643250E1	-4,688749835E-2	1,678874940E-1	-2,375999987E-1
1,232659600E1	-1,064250022E-1	3,711124957E-1	-1,630750000E-1
1,234675962E1	-1,212750003E-1	3,924250007E-1	-7,369999588E-2
1,236692333E1	-1,596374959E-1	2,094125003E-1	-5,348749831E-2
1,238708679E1	-1,308999956E-1	-4,606249928E-2	-2,997500077E-2
1,240725037E1	-2,199999988E-3	-2,854500115E-1	-4,179999977E-2
1,242741385E1	2,021249942E-2	-2,142249942E-1	-1,130250022E-1
1,244757746E1	1,010624990E-1	8,167500049E-2	-1,385999918E-1
1,246774115E1	1,574375033E-1	3,212000132E-1	-1,152250022E-1
1,248790451E1	1,490499973E-1	3,605250120E-1	-1,109625027E-1
1,250806820E1	-5,362499971E-3	2,327875048E-1	-1,790249944E-1
1,252823166E1	-9,583749622E-2	7,961250097E-2	-1,843875051E-1
1,254839535E1	-2,447500080E-2	-5,664999783E-2	-1,439625025E-1
1,256855873E1	5,211250111E-2	-1,673374921E-1	-5,775000155E-2
1,258872233E1	8,195000142E-2	-2,259124964E-1	1,044999994E-2
1,260888580E1	8,401250094E-2	-2,387000024E-1	3,808749840E-2
1,262904950E1	4,895000160E-2	-2,705999911E-1	1,787500083E-2
1,264921319E1	-4,262499884E-2	-3,940750062E-1	-3,217500076E-2
1,266937657E1	-1,329624951E-1	-4,014999866E-1	-7,053750008E-2
1,268954021E1	-2,117500007E-1	-1,385999918E-1	-1,194875017E-1
1,270970388E1	-1,405249983E-1	1,539999992E-1	-5,981250107E-2
1,272986733E1	8,621250093E-2	2,639999986E-2	6,036249921E-2
1,275003103E1	1,149500012E-1	-3,929750025E-1	1,787500083E-2
1,277019442E1	-1,192125008E-1	-5,355625153E-1	-1,534499973E-1
1,279035805E1	-1,533125043E-1	-2,631750107E-1	-2,418625057E-1
1,281052149E1	-2,447500080E-2	7,741250098E-2	-2,301750034E-1
1,283068517E1	1,490499973E-1	1,220999956E-1	-1,439625025E-1
1,285084877E1	2,458499968E-1	-6,201250106E-2	-1,215500012E-1
1,287101223E1	2,373249978E-1	-3,397625089E-1	-1,343374997E-1
1,289117584E1	2,490125000E-1	-4,993999898E-1	-1,545500010E-1
1,291133955E1	3,075875044E-1	-4,844124913E-1	-2,046000063E-1
1,293150296E1	3,085500002E-1	-3,130874932E-1	-2,088624984E-1
1,295166641E1	1,894749999E-1	8,249999955E-3	-2,259124964E-1
1,297183034E1	2,131249942E-2	3,093749881E-1	-2,396624982E-1
1,299199351E1	1,319999993E-1	2,413125038E-1	-8,222500235E-2
1,301215720E1	2,106499970E-1	-2,353999913E-1	-3,437499981E-3
1,303232085E1	-4,042499885E-2	-4,727250040E-1	-1,311749965E-1
1,305248429E1	-8,621250093E-2	-2,066625059E-1	-2,023999989E-1
1,307264791E1	1,989624947E-1	3,066249937E-2	-7,796250284E-2
1,309281138E1	3,511750102E-1	-2,474999987E-2	7,149999961E-3
1,311297500E1	9,047500044E-2	-1,641750038E-1	-6,517499685E-2
1,313313868E1	-2,564375103E-1	-5,348749831E-2	-1,161874980E-1
1,315330207E1	-2,734875083E-1	2,828375101E-1	-1,622499898E-2
1,317346581E1	-1,447875053E-1	4,243249893E-1	1,317249984E-1
1,319362922E1	-4,042499885E-2	1,252624989E-1	2,211000025E-1
1,321379284E1	-8,731249720E-2	-3,099249899E-1	1,615625024E-1
1,323395628E1	-1,872749925E-1	-3,577750027E-1	7,315000147E-2
1,325411987E1	3,409999982E-2	-1,269125044E-1	1,157749966E-1
1,327428335E1	3,383874893E-1	-2,048750035E-2	1,541374922E-1
1,329444698E1	3,480125070E-1	-1,204499975E-1	9,446249902E-2
1,331461066E1	2,128500044E-1	-1,161874980E-1	2,529999986E-2
1,333477413E1	-1,911249943E-2	4,124999791E-2	3,698749840E-2
1,335493775E1	-1,021625027E-1	1,519374996E-1	8,483749628E-2
1,337510120E1	-2,766500115E-1	1,625249982E-1	1,135749966E-1
1,339526482E1	-5,002250075E-1	3,008500040E-1	1,093124971E-1
1,341542830E1	-6,320874691E-1	5,893250108E-1	1,487749964E-1
1,343559202E1	-3,480125070E-1	5,318499804E-1	2,870999873E-1
1,345575540E1	2,202749997E-1	-1,269125044E-1	3,647874892E-1
1,347591909E1	4,883999825E-1	-7,962625027E-1	2,646875083E-1
1,349608271E1	5,788750052E-1	-1,001687527E0	9,872499853E-2
1,351624618E1	5,002250075E-1	-6,505125165E-1	-9,707500041E-2
1,353640981E1	3,255999982E-1	2,924624979E-1	-2,854500115E-1
1,355657323E1	1,010624990E-1	1,387512445E0	-2,865499854E-1
1,357673690E1	5,431250110E-2	1,890900016E0	-5,664999783E-2
1,359690029E1	-5,004999787E-2	1,401262522E0	2,157374918E-1
1,361706391E1	-1,755875051E-1	2,796750069E-1	2,806375027E-1
1,363722734E1	-6,489999592E-2	-5,483499765E-1	2,307250053E-1
1,365739097E1	2,436500043E-1	-8,303624988E-1	2,264624983E-1
1,367755466E1	6,098124981E-1	-7,026249766E-1	1,551000029E-1
1,369771812E1	5,608624816E-1	-5,003625154E-1	-1,828750037E-2
1,371788173E1	8,621250093E-2	1,993750036E-2	-2,535499930E-1
1,373804520E1	-2,000624985E-1	6,137999892E-1	-2,758249938E-1
1,375820882E1	5,857500061E-2	6,968500018E-1	4,344999790E-2
1,377837229E1	4,852375090E-1	-4,179999977E-2	3,647874892E-1
1,379853597E1	4,692874849E-1	-9,037874937E-1	3,573625088E-1
1,381869936E1	2,958999872E-1	-1,215637445E0	1,604624987E-1
1,383886297E1	1,457500011E-1	-8,804125190E-1	-9,762499481E-3
1,385902673E1	-7,232499868E-2	1,678874940E-1	-1,439625025E-1
1,387919004E1	-6,489999592E-2	1,389575005E0	-1,460250020E-1
1,389935350E1	4,468749836E-2	1,723700047E0	3,918749839E-2
1,391951714E1	5,953750014E-2	1,136299968E0	1,870000064E-1
1,393968084E1	-4,262499977E-3	2,967250049E-1	1,817750037E-1
1,395984431E1	-1,058750041E-2	-2,407625020E-1	1,966249943E-1
1,398000789E1	5,101250112E-2	-2,620750070E-1	2,316875011E-1
1,400017137E1	8,401250094E-2	-3,753750026E-2	2,520374954E-1
1,402033501E1	8,084999770E-2	1,413500011E-1	2,594625056E-1
1,404049847E1	5,211250111E-2	1,093124971E-1	2,743124962E-1
1,406066205E1	8,524999954E-3	-6,723749638E-2	2,987875044E-1
1,408082553E1	-1,704999991E-2	-1,662375033E-1	2,976875007E-1
1,410098920E1	-9,624999948E-3	-1,439625025E-1	2,583625019E-1
1,412115283E1	7,026249915E-2	-6,201250106E-2	2,072124928E-1
1,414131631E1	1,106875017E-1	5,513750017E-2	1,337874979E-1
1,416147994E1	7,136250287E-2	2,392500043E-1	4,757500067E-2
1,418164328E1	-2,763750032E-2	3,519999981E-1	1,993750036E-2
1,420180698E1	-5,857500061E-2	3,594250083E-1	8,057499677E-2
1,422197046E1	-3,836249933E-2	1,604624987E-1	1,806750000E-1
1,424213408E1	-3,506249934E-2	-1,237500012E-1	1,689874977E-1
1,426229779E1	-1,278750040E-2	-1,428624988E-1	1,029874980E-1
1,428246125E1	7,232499868E-2	2,956249937E-2	9,982500225E-2
1,430262488E1	4,895000160E-2	1,966249943E-1	9,446249902E-2
1,432278834E1	-1,594999991E-2	2,806375027E-1	1,146750003E-1
1,434295194E1	-1,138499975E-1	1,986874938E-1	1,487749964E-1
1,436311540E1	-1,607374996E-1	-3,753750026E-2	1,880999953E-1
1,438327903E1	-1,479499936E-1	-2,375999987E-1	1,647250056E-1
1,440344251E1	-1,010624990E-1	-2,268749923E-1	8,910000324E-2
1,442360613E1	-6,489999592E-2	-6,833750010E-2	-6,599999964E-3
1,444376958E1	-5,747500062E-2	1,445125043E-1	-8,222500235E-2
1,446393295E1	-8,195000142E-2	2,392500043E-1	-1,152250022E-1
1,448409656E1	-1,798499972E-1	1,582625061E-1	-1,311749965E-1
1,450426025E1	-3,096500039E-1	5,719999969E-2	-1,396999955E-1
1,452442361E1	-3,500750065E-1	-4,606249928E-2	-8,648750186E-2
1,454458728E1	-2,501125038E-1	-2,461249977E-1	3,066249937E-2
1,456475068E1	-9,583749622E-2	-4,408249855E-1	1,061500013E-1
1,458491415E1	-1,168750040E-2	-5,706250072E-1	2,419999987E-2
1,460507773E1	6,379999965E-2	-4,472874999E-1	-1,343374997E-1
1,462524140E1	2,937000096E-1	-1,077999994E-1	-2,290749997E-1
1,464540487E1	5,491750240E-1	1,348875016E-1	-2,322375029E-1
1,466556849E1	5,640249848E-1	1,189374998E-1	-1,938749999E-1
1,468573195E1	3,884375095E-1	3,987499978E-3	-2,162874937E-1
1,470589556E1	1,278750040E-2	7,149999961E-3	-2,705999911E-1
1,472605903E1	-4,767124951E-1	4,137375057E-1	-3,812874854E-1
1,474622264E1	-6,491374969E-1	9,968749881E-1	-3,662999868E-1
1,476638608E1	-3,713875115E-1	9,840874672E-1	-2,023999989E-1
1,478654969E1	1,388750039E-2	2,253624946E-1	-6,723749638E-2
1,480671315E1	2,873750031E-2	-5,813499689E-1	-2,364999987E-2
1,482687676E1	-2,337500080E-2	-9,686874747E-1	6,572499871E-2
1,484704024E1	8,621250093E-2	-1,021899939E0	1,806750000E-1
1,486720386E1	2,245374918E-1	-9,952250123E-1	1,860374957E-1
1,488736734E1	2,681249976E-1	-9,570000172E-1	7,741250098E-2
1,490753095E1	1,830125004E-1	-8,271999955E-1	1,044999994E-2
1,492769441E1	-1,106875017E-1	-7,717875242E-1	3,382499889E-2
1,494785805E1	-3,863750100E-1	-6,930000186E-1	2,309999987E-2
1,496802153E1	-4,778124988E-1	-4,567750096E-1	-4,386249930E-2
1,498818513E1	-4,724499881E-1	1,561999917E-1	-1,161874980E-1
1,500834859E1	-2,884750068E-1	9,085999727E-1	-1,152250022E-1
1,502851219E1	1,277374923E-1	1,077725053E0	-6,201250106E-2
1,504867588E1	5,693874955E-1	5,711749792E-1	1,924999990E-3
1,506883926E1	6,502375007E-1	-9,927500039E-2	2,309999987E-2
1,508900262E1	4,214375019E-1	-3,343999982E-1	9,349999949E-3
1,510916609E1	9,047500044E-2	7,149999961E-3	3,698749840E-2
1,512932971E1	-1,405249983E-1	5,861625075E-1	9,762500226E-2
1,514949347E1	-2,564375103E-1	8,511250019E-1	2,168374956E-1
1,516965686E1	-3,841750026E-1	7,797625065E-1	2,945249975E-1
1,518982050E1	-4,948624969E-1	4,254249930E-1	3,093749881E-1
1,520998400E1	-4,927999973E-1	-1,374999993E-3	3,328875005E-1
1,523014762E1	-3,129499853E-1	-2,726624906E-1	3,286249936E-1
1,525031106E1	-6,379999965E-2	-2,173874974E-1	2,466749996E-1
1,527047447E1	9,583749622E-2	-1,311749965E-1	1,838375032E-1
1,529063809E1	9,047500044E-2	-1,992374957E-1	1,667875051E-1
1,531080177E1	-1,564749926E-1	-2,791250050E-1	1,530375034E-1
1,533096523E1	-5,374875069E-1	-2,535499930E-1	4,867500067E-2
1,535112883E1	-7,492374778E-1	6,998749822E-2	-1,172875017E-1
1,537129221E1	-6,587625146E-1	4,956874847E-1	-2,800875008E-1
1,539145586E1	-2,404875010E-1	5,585250258E-1	-2,982375026E-1
1,541161926E1	2,660624981E-1	2,637250125E-1	-2,439250052E-1
1,543178294E1	5,289624929E-1	-2,237125039E-1	-2,205500007E-1
1,545194631E1	5,224999785E-1	-5,025625229E-1	-2,387000024E-1
1,547210977E1	3,693250120E-1	-4,291374981E-1	-2,673000097E-1
1,549227337E1	6,806249917E-2	-5,775000155E-2	-2,886124849E-1
1,551243682E1	-2,842124999E-1	5,127375126E-1	-2,333374918E-1
1,553260045E1	-4,097499847E-1	8,702374697E-1	-2,681249939E-2
1,555276414E1	-2,299000025E-1	5,978500247E-1	2,551999986E-1
1,557292753E1	-8,937499672E-2	-2,694999874E-1	3,371500075E-1
1,559309101E1	-1,872749925E-1	-9,388499856E-1	1,295250058E-1
1,561325462E1	-2,968625128E-1	-8,281624913E-1	-9,075000137E-2
1,563341810E1	-2,649624944E-1	1,997874975E-1	-1,938749999E-1
1,565358170E1	-5,004999787E-2	1,297037482E0	-1,172875017E-1
1,567374538E1	1,394249946E-1	1,514150023E0	1,141249947E-2
1,569390876E1	1,457500011E-1	9,277125001E-1	4,551250115E-2
1,571407223E1	-2,983750030E-2	3,588749841E-2	2,736249939E-2
1,573423561E1	-2,245374918E-1	-4,929375052E-1	8,387500048E-2
1,575439924E1	-3,224374950E-1	-4,461874962E-1	1,359875053E-1
1,577456270E1	-2,404875010E-1	-1,119249985E-1	1,849374920E-1
1,579472633E1	-5,004999787E-2	8,910000324E-2	1,945624948E-1
1,581488978E1	4,578749835E-2	-4,922499880E-2	1,252624989E-1
1,583505338E1	-2,557500079E-2	-1,610125005E-1	7,149999961E-3
1,585521709E1	4,358749837E-2	-4,606249928E-2	-4,702499881E-2
1,587538056E1	3,181749880E-1	4,757500067E-2	-3,107500076E-2
1,589554395E1	4,437125027E-1	-3,533750027E-2	-8,222500235E-2
1,591570757E1	3,150124848E-1	-5,884999782E-2	-1,896124929E-1
1,593587102E1	-6,324999966E-3	2,307250053E-1	-2,833875120E-1
1,595603463E1	-3,064875007E-1	7,851250172E-1	-2,131250054E-1
1,597619806E1	-4,629625082E-1	1,022449970E0	1,787500083E-2
1,599636168E1	-5,906999707E-1	7,840250134E-1	2,105125040E-1
1,601652508E1	-5,746124983E-1	2,413125038E-1	2,518999875E-1
1,603668876E1	-1,511124969E-1	-5,717250109E-1	3,531000018E-1
1,605685214E1	3,745499849E-1	-1,385862470E0	3,753750026E-1
1,607701584E1	5,310249925E-1	-1,771137476E0	2,817375064E-1
1,609717921E1	3,617624938E-1	-1,182637453E0	1,923625022E-1
1,611734290E1	3,932499886E-2	1,337874979E-1	1,476749927E-1
1,613750638E1	-2,011625022E-1	7,819625139E-1	-1,651374996E-1
1,615766978E1	-2,617999911E-1	7,191249728E-1	-5,068249702E-1
1,617783341E1	-2,373249978E-1	5,222250223E-1	-5,919374824E-1
1,619799687E1	-1,223749965E-1	4,115374982E-1	-2,928749919E-1
1,621816048E1	7,975000143E-2	9,652499855E-2	5,087499972E-3
1,623832394E1	2,564375103E-1	-5,196124911E-1	6,888750196E-2
1,625848756E1	3,607999980E-1	-9,453125000E-1	9,349999949E-3
1,627865103E1	3,799124956E-1	-9,729499817E-1	-9,281250089E-2
1,629881465E1	2,820124924E-1	-6,675624847E-1	-2,023999989E-1
1,631897812E1	1,329624951E-1	-1,311749965E-1	-2,268749923E-1
1,633914174E1	-6,173750013E-2	3,093749881E-1	-1,599124968E-1
1,635930511E1	-2,714250088E-1	2,976875007E-1	-1,622499898E-2
1,637946855E1	-4,683249891E-1	6,187499966E-3	1,274625063E-1
1,639963222E1	-5,788750052E-1	-2,652375102E-1	1,328250021E-1
1,641979565E1	-6,140750051E-1	-2,450249940E-1	2,419999987E-2
1,643995929E1	-3,661625087E-1	2,381500006E-1	1,677500084E-2
1,646012275E1	1,447875053E-1	6,403374672E-1	1,317249984E-1
1,648028637E1	6,087124944E-1	3,807374835E-1	1,784749925E-1
1,650044983E1	6,480374932E-1	-2,035000026E-1	1,413500011E-1
1,652061345E1	5,002250075E-1	-5,578374863E-1	8,057499677E-2
1,654077684E1	2,512125075E-1	-5,088874698E-1	1,993750036E-2
1,656094032E1	8,304999769E-2	-2,279749960E-1	1,787500083E-2
1,658110394E1	-4,688749835E-2	1,285624951E-1	5,609999970E-2
1,660126762E1	-2,436500043E-1	3,625875115E-1	7,315000147E-2
1,662143100E1	-5,054500103E-1	5,244249701E-1	1,061500013E-1
1,664159448E1	-6,672874689E-1	6,351125240E-1	1,274625063E-1
1,666175809E1	-4,192374945E-1	1,135749966E-1	1,677500084E-2
1,668192152E1	-2,021249942E-2	-5,578374863E-1	-2,254999988E-2
1,670208512E1	1,585374922E-1	-5,728250146E-1	-8,799999952E-3
1,672224881E1	1,607374996E-1	-2,046000063E-1	-1,622499898E-2
1,674241221E1	1,607374996E-1	1,423124969E-1	1,044999994E-2
1,676257567E1	1,340624988E-1	2,051499933E-1	7,204999775E-2
1,678273929E1	5,953750014E-2	1,018875018E-1	9,019999951E-2
1,680290298E1	3,299999982E-2	-3,217500076E-2	1,200374961E-1
1,682306637E1	-6,324999966E-3	-1,343374997E-1	1,530375034E-1
1,684322982E1	-3,726249933E-2	-4,069999978E-2	1,465750039E-1
1,686339341E1	-2,557500079E-2	1,274625063E-1	1,710499972E-1
1,688355677E1	6,806249917E-2	9,446249902E-2	1,827374995E-1
1,690372047E1	1,585374922E-1	2,309999987E-2	1,413500011E-1
1,692388385E1	1,852124929E-1	-6,201250106E-2	7,204999775E-2
1,694404730E1	1,574375033E-1	-5,871250108E-2	7,741250098E-2
1,696421069E1	5,431250110E-2	9,336250275E-2	8,703749627E-2
1,698437439E1	-1,926375031E-1	1,337874979E-1	1,189374998E-1
1,700453778E1	-3,448500037E-1	1,018875018E-1	1,476749927E-1
1,702470138E1	-4,086500108E-1	8,167500049E-2	1,231999993E-1
1,704486486E1	-3,278000057E-1	7,108750194E-2	7,108750194E-2
1,706502850E1	-1,170125008E-1	1,567500085E-2	5,719999969E-2
1,708519196E1	1,244374961E-1	-1,736624986E-1	1,993750036E-2
1,710535535E1	1,979999989E-1	-2,908124924E-1	-6,723749638E-2
1,712551896E1	2,894375026E-1	-2,333374918E-1	-1,332374960E-1
1,714568238E1	2,968625128E-1	-3,959999979E-2	-1,599124968E-1
1,716584608E1	3,139125109E-1	3,382499889E-2	-1,343374997E-1
1,718600969E1	2,851749957E-1	5,403750017E-2	-9,171249717E-2
1,720617309E1	1,809500009E-1	-3,327500075E-2	-8,855000138E-2
1,722633656E1	2,557500079E-2	-6,091250107E-2	-9,281250089E-2
1,724650018E1	-2,447500080E-2	-2,791249938E-2	-5,128749833E-2
1,726666366E1	-4,688749835E-2	7,204999775E-2	-7,053750008E-2
1,728682706E1	-1,553750038E-1	2,083124965E-1	-1,172875017E-1
1,730699072E1	-2,393874973E-1	2,413125038E-1	-4,496249929E-2
1,732715419E1	-1,713249981E-1	6,366249919E-2	6,998749822E-2
1,734731780E1	-1,058750041E-2	-2,077624947E-1	6,146249920E-2
1,736748128E1	4,784999788E-2	-3,950375021E-1	-5,128749833E-2
1,738764489E1	4,895000160E-2	-3,557125032E-1	-9,597499669E-2
1,740780858E1	1,447875053E-1	-7,686249912E-2	-7,259999961E-2
1,742797196E1	2,276999950E-1	9,446249902E-2	-5,664999783E-2
1,744813542E1	1,692624986E-1	-6,627500057E-2	-6,091250107E-2
1,746829880E1	5,321250111E-2	-1,204499975E-1	-1,402499992E-2
1,748846240E1	2,447500080E-2	-2,901249938E-2	3,066249937E-2
1,750862584E1	-3,409999982E-2	1,040875018E-1	4,015000165E-2
1,752878945E1	3,836249933E-2	2,626250088E-1	7,631249726E-2
1,754895292E1	1,058750041E-2	2,072124928E-1	8,057499677E-2
1,756911653E1	-8,621250093E-2	1,348875016E-1	1,168750003E-1
1,758927989E1	-4,262499884E-2	7,424999774E-2	1,678874940E-1
1,760944334E1	1,388750039E-2	-5,238749832E-2	1,977249980E-1
1,762960695E1	-2,131249942E-2	-1,055999994E-1	1,593624949E-1
1,764977040E1	-1,064250022E-1	-2,474999987E-2	1,061500013E-1
1,766993399E1	-1,724250019E-1	9,239999950E-2	5,513750017E-2
1,769009744E1	-2,788499892E-1	1,200374961E-1	-6,599999964E-3
1,771026104E1	-3,522749841E-1	9,762500226E-2	-4,496249929E-2
1,773042445E1	-3,416875005E-1	7,631249726E-2	-6,627500057E-2
1,775058793E1	-2,745875120E-1	5,719999969E-2	-4,702499881E-2
1,777075155E1	-1,405249983E-1	1,361249946E-2	-2,681249939E-2
1,779091499E1	2,131249942E-2	-9,501250088E-2	-3,849999979E-2
1,781107861E1	7,768750191E-2	-1,588124931E-1	-7,906249911E-2
1,783124200E1	1,064250022E-1	-1,077999994E-1	-1,619749963E-1
1,785140548E1	5,747500062E-2	-3,011249937E-2	-2,088624984E-1
1,787156917E1	5,857500061E-2	6,792499870E-2	-1,630750000E-1
1,789173280E1	-1,594999991E-2	9,556250274E-2	-1,396999955E-1
1,791189620E1	-1,702249944E-1	8,813749999E-2	-1,332374960E-1
1,793205966E1	-2,501125038E-1	6,682500243E-2	-1,482249945E-1
1,795222305E1	-3,298625052E-1	1,497374922E-1	-2,120250016E-1
1,797238667E1	-3,756499887E-1	4,839999974E-1	-2,737624943E-1
1,799255016E1	-3,543374836E-1	6,425374746E-1	-2,259124964E-1
1,801271379E1	-2,660624981E-1	3,796375096E-1	-1,354375035E-1
1,803287725E1	-1,181124970E-1	-1,727000028E-1	-7,259999961E-2
1,805304087E1	-1,904374957E-1	-5,472499728E-1	-1,662375033E-1
1,807320436E1	-2,352624983E-1	-4,450874925E-1	-2,056999952E-1
1,809336798E1	-1,181124970E-1	-1,141249985E-1	-2,578125000E-1
1,811353138E1	8,195000142E-2	1,093124971E-1	-2,705999911E-1
1,813369484E1	1,670625061E-1	9,239999950E-2	-2,492875010E-1
1,815385844E1	1,522125006E-1	-1,732499897E-2	-2,886124849E-1
1,817402184E1	1,244374961E-1	-1,502874941E-1	-3,684999943E-1
1,819418530E1	4,042499885E-2	-2,492875010E-1	-4,589749873E-1
1,821434890E1	3,543374836E-1	7,204999775E-2	-2,003374994E-1
1,823451235E1	4,757499993E-1	2,846249938E-2	-2,035000026E-1
1,825467572E1	4,459125102E-1	-1,608749926E-1	-2,003374994E-1
1,827483933E1	3,042874932E-1	-1,354375035E-1	-2,046000063E-1
1,829500277E1	8,937499672E-2	3,987499978E-3	-1,407999992E-1
1,831516639E1	-7,988750190E-2	2,392500043E-1	-3,437500075E-2
1,833532977E1	-1,766874939E-1	3,668499887E-1	1,263625026E-1
1,835549342E1	-1,362625062E-1	4,757500067E-2	2,392500043E-1
1,837565692E1	4,675000161E-2	-3,907749951E-1	2,136749923E-1
1,839582030E1	1,414874941E-1	-5,216749907E-1	4,977500066E-2
1,841598392E1	1,937374920E-1	-2,928749919E-1	-1,306249946E-2
1,843614736E1	2,553375065E-1	3,987499978E-3	6,998749822E-2
1,845631100E1	2,191749960E-1	6,256250292E-2	1,860374957E-1
1,847647447E1	7,768750191E-2	-1,098624989E-1	2,349874973E-1
1,849663786E1	-1,072499994E-2	-1,992374957E-1	2,083124965E-1
1,851680125E1	-8,415000141E-2	-1,736624986E-1	1,178374961E-1
1,853696485E1	-1,086250022E-1	8,249999955E-3	8,277499676E-2
1,855712829E1	-7,026249915E-2	2,551999986E-1	1,231999993E-1
1,857729198E1	-4,784999788E-2	3,019500077E-1	1,827374995E-1
1,859745535E1	-9,473749995E-2	8,813749999E-2	1,944250017E-1
1,861761900E1	-1,245749965E-1	-1,747625023E-1	1,508374959E-1
1,863778236E1	-1,075249985E-1	-2,259124964E-1	1,678874940E-1
1,865794582E1	-8,511249721E-2	-1,577125043E-1	2,019875050E-1
1,867810918E1	8,524999954E-3	-1,715999991E-1	2,168374956E-1
1,869827287E1	1,042250022E-1	-2,652375102E-1	1,795749962E-1
1,871843650E1	1,585374922E-1	-3,673999906E-1	9,336250275E-2
1,873859988E1	5,747500062E-2	-2,748624980E-1	1,141249947E-2
1,875876335E1	-4,042499885E-2	5,293750018E-2	-9,899999946E-3
1,877892694E1	-1,373624951E-1	4,031499922E-1	2,419999987E-2
1,879909029E1	-1,553750038E-1	4,265249968E-1	7,424999774E-2
1,881925399E1	-1,660999954E-1	2,424124926E-1	9,762500226E-2
1,883941738E1	-2,096875012E-1	1,141249947E-2	5,293750018E-2
1,885958083E1	-2,426874936E-1	2,103750035E-2	2,736249939E-2
1,887974422E1	-1,627999991E-1	1,498750001E-1	6,572499871E-2
1,889990784E1	-6,462499965E-3	1,423124969E-1	9,019999951E-2
1,892007131E1	3,506249934E-2	-5,981250107E-2	6,888750196E-2
1,894023494E1	7,026249915E-2	-1,758625060E-1	5,719999969E-2
1,896039843E1	1,542750001E-1	-2,609750032E-1	5,293750018E-2
1,898056181E1	1,819124967E-1	-1,960749924E-1	1,251249947E-2
1,900072543E1	1,064250022E-1	-9,927500039E-2	-6,407500058E-2
1,902088882E1	-7,026249915E-2	6,998749822E-2	-6,311249733E-2
1,904105228E1	-1,181124970E-1	2,296250015E-1	-1,196249947E-2
1,906121591E1	-8,731249720E-2	1,391499937E-1	2,639999986E-2
1,908137935E1	-5,321250111E-2	-6,833750010E-2	-6,599999964E-3
1,910154299E1	-1,181124970E-1	-1,843875051E-1	-1,450625062E-1
1,912170633E1	-1,863124967E-1	-1,044999957E-1	-2,227499932E-1
1,914186978E1	-2,809124887E-1	1,508374959E-1	-2,503874898E-1
1,916203339E1	-2,979624867E-1	3,711124957E-1	-2,259124964E-1
1,918219708E1	-1,820500046E-1	2,509374917E-1	-1,695374995E-1
1,920236046E1	1,064250022E-1	-1,109625027E-1	-1,619749963E-1
1,922252394E1	3,224374950E-1	-4,684624970E-1	-2,387000024E-1
1,924268755E1	3,491125107E-1	-4,993999898E-1	-3,355000019E-1
1,926285094E1	2,979624867E-1	-2,726624906E-1	-3,748250008E-1
1,928301440E1	2,606999874E-1	1,044999994E-2	-3,366000056E-1
1,930317802E1	1,639000028E-1	2,392500043E-1	-2,514874935E-1
1,932334140E1	3,932499886E-2	2,105125040E-1	-1,684374958E-1
1,934350485E1	-1,297999918E-1	1,018875018E-1	-1,130250022E-1
1,936366846E1	-2,011625022E-1	6,036249921E-2	-2,364999987E-2
1,938383194E1	-2,096875012E-1	1,029874980E-1	-1,732499897E-2
1,940399525E1	-1,841125041E-1	1,827374995E-1	7,149999961E-3
1,942415894E1	2,337500080E-2	8,387500048E-2	7,424999774E-2
1,944432231E1	1,766874939E-1	-1,736624986E-1	5,183750018E-2
1,946448575E1	6,489999592E-2	-2,481874973E-1	-6,201250106E-2
1,948464913E1	-2,873750031E-2	2,309999987E-2	-7,259999961E-2
1,950481283E1	7,424999960E-3	1,658249944E-1	1,031249948E-2
1,952497625E1	-3,299999982E-2	2,639999986E-2	3,162499890E-2
1,954513987E1	-9,583749622E-2	-6,943749636E-2	-4,537499975E-3
1,956530331E1	-1,911249943E-2	-1,067000031E-1	-2,254999988E-2
1,958546674E1	1,479499936E-1	-2,099625021E-1	-9,899999946E-3
1,960563035E1	2,182125002E-1	-2,535499930E-1	-6,723749638E-2
1,962579384E1	1,852124929E-1	-1,449249983E-1	-1,491875052E-1
1,964595747E1	8,511249721E-2	3,588749841E-2	-1,491875052E-1
1,966612084E1	-6,462499965E-3	1,582625061E-1	-1,215500012E-1
1,968628430E1	-9,473749995E-2	1,817750037E-1	-1,067000031E-1
1,970644791E1	-1,436875015E-1	2,275625020E-1	-5,348749831E-2
1,972661129E1	-8,731249720E-2	1,955250055E-1	-2,749999985E-4
1,974677495E1	7,548750192E-2	2,887499984E-3	1,141249947E-2
1,976693843E1	1,915374994E-1	-2,056999952E-1	-6,311249733E-2
1,978710178E1	1,297999918E-1	-9,075000137E-2	-9,501250088E-2
1,980726520E1	-4,358749837E-2	1,636250019E-1	-5,458749831E-2
1,982742881E1	-1,841125041E-1	3,903625011E-1	6,778749824E-2
1,984759221E1	-2,319625020E-1	3,084124923E-1	2,008875012E-1
1,986775566E1	-2,586374879E-1	2,213750035E-2	1,912624985E-1
1,988791924E1	-8,415000141E-2	-2,023999989E-1	1,561999917E-1
1,990808268E1	2,202749997E-1	-2,715624869E-1	1,317249984E-1
1,992824633E1	4,277625084E-1	-2,259124964E-1	9,019999951E-2
1,994840977E1	4,587000012E-1	-1,619749963E-1	1,993750036E-2
1,996857313E1	4,235000014E-1	-1,024374962E-1	1,787500083E-2
1,998873675E1	3,244999945E-1	-7,369999588E-2	3,588749841E-2
2,000890015E1	1,160499975E-1	-7,259999961E-2	9,349999949E-3
2,002906359E1	-1,735250056E-1	-3,643750027E-2	-3,437500075E-2
2,004922721E1	-5,193374753E-1	2,529999912E-1	-5,775000155E-2
2,006939058E1	-6,650875211E-1	5,882250071E-1	-1,512499992E-2
2,008955408E1	-5,810750127E-1	6,521624923E-1	6,778749824E-2
2,010971770E1	-2,692250013E-1	3,988874853E-1	7,204999775E-2
2,012988107E1	7,122500241E-2	3,808749840E-2	4,867500067E-2
2,015004478E1	2,595999837E-1	-2,131250054E-1	6,187499966E-3
2,017020818E1	2,916375101E-1	-2,854500115E-1	-7,699999958E-3
2,019037155E1	1,958000064E-1	-1,896124929E-1	-1,306249946E-2
2,021053502E1	1,053249985E-1	3,987499978E-3	1,924999990E-3
2,023069841E1	1,744875014E-1	8,483749628E-2	3,808749840E-2
2,025086201E1	2,373249978E-1	-4,537499975E-3	2,309999987E-2
2,027102546E1	3,033249974E-1	-1,172875017E-1	-2,584999986E-2
2,029118886E1	3,107500076E-1	-1,280124933E-1	-6,091250107E-2
2,031135246E1	1,798499972E-1	-7,699999958E-3	-8,648750186E-2
2,033151589E1	-7,658749819E-2	2,072124928E-1	-9,075000137E-2
2,035167951E1	-3,053874969E-1	4,934875071E-1	-3,533750027E-2
2,037184290E1	-4,310624897E-1	6,180624962E-1	7,424999774E-2
2,039200636E1	-3,873375058E-1	4,690124989E-1	1,721500009E-1
2,041217000E1	-1,713249981E-1	6,036249921E-2	1,710499972E-1
2,043233340E1	4,784999788E-2	-3,694624901E-1	1,124750003E-1
2,045249685E1	1,405249983E-1	-5,142499804E-1	1,031249948E-2
2,047266048E1	1,405249983E-1	-3,184500039E-1	-1,226499975E-1
2,049282386E1	7,342500240E-2	7,851249725E-2	-1,599124968E-1
2,051298730E1	-7,342500240E-2	4,318875074E-1	-8,648750186E-2
2,053315070E1	-2,139499933E-1	5,552250147E-1	2,956249937E-2
2,055331431E1	-3,810124993E-1	4,669499993E-1	1,220999956E-1
2,057347804E1	-5,480750203E-1	2,157374918E-1	1,306249946E-1
2,059364121E1	-5,693874955E-1	-1,402499992E-2	9,556250274E-2
2,061380489E1	-4,214375019E-1	-1,513874978E-1	1,007874981E-1
2,063396828E1	-1,075249985E-1	-2,098249942E-1	1,295250058E-1
2,065413191E1	8,827500045E-2	-3,705624938E-1	8,593750000E-2
2,067429531E1	3,506249934E-2	-5,153499842E-1	-1,374999993E-3
2,069445869E1	-1,086250022E-1	-4,226749837E-1	-7,576250285E-2
2,071462240E1	-1,394249946E-1	-1,727000028E-1	-9,281250089E-2
2,073478578E1	-6,173750013E-2	-5,555000156E-2	-1,067000031E-1
2,075494917E1	-9,624999948E-3	-5,032499880E-2	-2,248124927E-1
2,077511262E1	4,358749837E-2	-2,791249938E-2	-3,323374987E-1
2,079527623E1	2,043250054E-1	1,251249947E-2	-4,035624862E-1
2,081543963E1	3,363249898E-1	2,213750035E-2	-4,291374981E-1
2,083560307E1	4,394499958E-1	1,897500083E-2	-4,131875038E-1
2,085576646E1	4,905999899E-1	-3,533750027E-2	-3,705624938E-1
2,087593007E1	4,703874886E-1	-7,906249911E-2	-3,099249899E-1
2,089609353E1	2,308624983E-1	2,887499984E-3	-2,854500115E-1
2,091625715E1	-1,181124970E-1	1,977249980E-1	-2,248124927E-1
2,093642049E1	-3,150124848E-1	4,031499922E-1	-8,855000138E-2
2,095658396E1	-4,023250043E-1	4,360125065E-1	4,757500067E-2
2,097674765E1	-3,161124885E-1	3,264249861E-1	1,710499972E-1
2,099691095E1	-4,262499977E-3	1,211374998E-1	3,062124848E-1
2,101707440E1	3,224374950E-1	-6,201250106E-2	3,700124919E-1
2,103723779E1	4,767124951E-1	-1,929125041E-1	3,051125109E-1
2,105740142E1	4,575999975E-1	-1,971749961E-1	1,912624985E-1
2,107756490E1	3,235374987E-1	-2,997500077E-2	1,209999993E-1
2,109772852E1	1,149500012E-1	1,508374959E-1	1,007874981E-1
2,111789190E1	-1,457500011E-1	2,040500045E-1	1,104125008E-1
2,113805537E1	-2,437874973E-1	1,306249946E-1	1,391499937E-1
2,115821901E1	-1,500124931E-1	-4,179999977E-2	1,285624951E-1
2,117838241E1	1,911249943E-2	-1,556500047E-1	2,846249938E-2
2,119854588E1	1,659625024E-1	-1,258125007E-1	-1,172875017E-1
2,121870928E1	2,564375103E-1	3,808749840E-2	-1,971749961E-1
2,123887284E1	3,489750028E-1	1,104125008E-1	-1,864500046E-1
2,125903623E1	1,819124967E-1	3,698749840E-2	-1,599124968E-1
2,127919968E1	-1,394249946E-1	1,924999990E-3	-9,707500041E-2
2,129936329E1	-3,298625052E-1	1,476749927E-1	3,478749841E-2
2,131952666E1	-3,895374835E-1	2,222000062E-1	1,040875018E-1
2,133969012E1	-3,969624937E-1	7,218749821E-2	8,057499677E-2
2,135985348E1	-2,085874975E-1	-3,849999979E-2	9,872499853E-2
2,138001711E1	5,004999787E-2	-1,215500012E-1	1,380500048E-1
2,140018058E1	1,958000064E-1	-2,046000063E-1	1,880999953E-1
2,142034396E1	2,766500115E-1	-2,715624869E-1	2,518999875E-1
2,144050758E1	1,702249944E-1	-3,258749843E-1	2,540999949E-1
2,146067104E1	5,211250111E-2	-2,470874935E-1	2,348500043E-1
2,148083443E1	-6,916250288E-2	-9,707500041E-2	1,827374995E-1
2,150099804E1	-1,533125043E-1	1,348875016E-1	1,115124971E-1
2,152116142E1	-1,660999954E-1	2,168374956E-1	1,115124971E-1
2,154132479E1	-1,915374994E-1	1,274625063E-1	1,359875053E-1
2,156148847E1	-1,809500009E-1	1,471249945E-2	1,050499976E-1
2,158165185E1	-7,452499866E-2	2,213750035E-2	3,904999793E-2
2,160181524E1	9,790000319E-2	6,682500243E-2	-6,599999964E-3
2,162197870E1	1,861750036E-1	4,235000163E-2	-4,812499881E-2
2,164214232E1	7,452499866E-2	3,808749840E-2	-5,555000156E-2
2,166230578E1	-1,362625062E-1	1,732500046E-1	3,987499978E-3
2,168246939E1	-2,842124999E-1	3,104749918E-1	1,508374959E-1
2,170263278E1	-3,735874891E-1	2,711499929E-1	2,732124925E-1
2,172279626E1	-4,692874849E-1	1,753125042E-1	2,902624905E-1
2,174295964E1	-4,683249891E-1	7,851249725E-2	2,242625058E-1
2,176312326E1	-1,968999952E-1	-1,087625027E-1	1,465750039E-1
2,178328666E1	1,425874978E-1	-2,587749958E-1	-1,374999993E-3
2,180345013E1	2,916375101E-1	-2,109249979E-1	-1,886499971E-1
2,182361374E1	2,213750035E-1	7,108750194E-2	-2,791250050E-1
2,184377714E1	1,192125008E-1	3,403125107E-1	-1,875499934E-1
2,186394052E1	-5,541250110E-2	3,807374835E-1	-2,474999987E-2
2,188410391E1	-3,224374950E-1	2,891624868E-1	2,529999986E-2
2,190426736E1	-5,033875108E-1	1,402499974E-1	2,419999987E-2
2,192443075E1	-4,672249854E-1	-6,091250107E-2	-1,416249946E-2
2,194459435E1	-2,096875012E-1	-1,779250056E-1	-5,348749831E-2
2,196475784E1	5,004999787E-2	-2,450249940E-1	-1,493249983E-1
2,198492143E1	1,958000064E-1	-3,099249899E-1	-2,492875010E-1
2,200508482E1	2,840749919E-1	-2,641375065E-1	-3,291749954E-1
2,202524822E1	1,649999917E-1	-9,171249717E-2	-3,451249897E-1
2,204541169E1	2,447500080E-2	5,087500066E-2	-3,056625128E-1
2,206557531E1	-6,063750014E-2	3,808749840E-2	-2,514874935E-1
2,208573873E1	-7,342500240E-2	-3,423750028E-2	-2,184875011E-1
2,210590214E1	-2,983750030E-2	-7,796250284E-2	-1,801249981E-1
2,212606560E1	9,679999948E-2	-2,205500007E-1	-1,758625060E-1
2,214622917E1	1,841125041E-1	-2,481874973E-1	-2,066625059E-1
2,216639256E1	1,978625059E-1	-3,423750028E-2	-2,279749960E-1
2,218655600E1	2,798124850E-1	3,698749840E-2	-1,715999991E-1
2,220671962E1	3,489750028E-1	-1,428624988E-1	-1,407999992E-1
2,222688300E1	3,042874932E-1	-1,673374921E-1	-1,630750000E-1
2,224704647E1	2,202749997E-1	1,044999994E-2	-1,332374960E-1
2,226720985E1	2,223374993E-1	5,293750018E-2	-2,048750035E-2
2,228737346E1	1,457500011E-1	-1,732499897E-2	4,441250116E-2
2,230753685E1	1,058750041E-2	-4,537499975E-3	8,167500049E-2
2,232770026E1	-5,747500062E-2	-2,337499987E-3	1,369500011E-1
2,234786372E1	-2,199999988E-3	-9,707500041E-2	2,051499933E-1
2,236802736E1	9,363749623E-2	-1,226499975E-1	1,859000027E-1
2,238819081E1	1,809500009E-1	-7,053750008E-2	1,359875053E-1
2,240835421E1	1,607374996E-1	2,887499984E-3	1,039500013E-1
2,242851756E1	8,827500045E-2	2,419999987E-2	7,521250099E-2
2,244868116E1	-1,911249943E-2	8,910000324E-2	8,277499676E-2
2,246884463E1	-3,519999981E-2	1,328250021E-1	1,018875018E-1
2,248900800E1	-9,624999948E-3	1,243000031E-1	1,072499976E-1
2,250917138E1	3,189999983E-2	4,867500067E-2	9,968750179E-2
2,252933497E1	1,374999993E-2	-6,091250107E-2	9,968750179E-2
2,254949843E1	-6,462499965E-3	-5,018749833E-2	1,263625026E-1
2,256966181E1	1,594999991E-2	-1,534499973E-1	1,880999953E-1
2,258982540E1	1,181124970E-1	-4,067249894E-1	2,359499931E-1
2,260998877E1	1,733874977E-1	-5,142499804E-1	1,753125042E-1
2,263015225E1	1,819124967E-1	-3,737249970E-1	4,235000163E-2
2,265031588E1	1,841125041E-1	-1,960749924E-1	-5,032499880E-2
2,267047927E1	3,224374950E-1	-1,732499897E-2	-5,238749832E-2
2,269064273E1	3,554374874E-1	-4,069999978E-2	-6,407500058E-2
2,271080611E1	2,916375101E-1	-7,576250285E-2	-7,369999588E-2
2,273096950E1	3,726249933E-2	4,441250116E-2	-5,032499880E-2
2,275113312E1	-2,341624945E-1	4,063124955E-1	-5,637499969E-3
2,277129651E1	-3,096500039E-1	8,309124708E-1	5,183750018E-2
2,279145999E1	-2,171124965E-1	8,149625063E-1	1,359875053E-1
2,281162334E1	-7,658749819E-2	2,828375101E-1	2,211000025E-1
2,283178697E1	-6,710000336E-2	-2,908124924E-1	2,721124887E-1
2,285195066E1	-1,670625061E-1	-4,536125064E-1	3,158375025E-1
2,287211380E1	-2,447499931E-1	-2,715624869E-1	3,073124886E-1
2,289227743E1	-3,075875044E-1	-5,871250108E-2	2,529999912E-1
2,291244081E1	-3,383874893E-1	9,349999949E-3	9,762500226E-2
2,293260419E1	-2,426874936E-1	-5,128749833E-2	6,049999967E-3
2,295276764E1	-1,168750040E-2	-1,736624986E-1	6,256250292E-2
2,297293125E1	1,713249981E-1	-2,609750032E-1	1,582625061E-1
2,299309466E1	2,692250013E-1	-2,791250050E-1	9,446249902E-2
2,301325809E1	2,820124924E-1	-1,013374999E-1	3,162499890E-2
2,303342148E1	2,436500043E-1	1,135749966E-1	-1,374999993E-3
2,305358487E1	2,106499970E-1	1,104125008E-1	-1,163249984E-1
2,307374857E1	6,489999592E-2	8,483749628E-2	-3,025000095E-1
2,309391194E1	-1,553750038E-1	2,232999951E-1	-3,684999943E-1
2,311407533E1	-2,139499933E-1	3,221625090E-1	-2,322375029E-1
2,313423895E1	-2,703250051E-1	2,774749994E-1	-6,627500057E-2
2,315440234E1	-4,714874923E-1	8,593750000E-2	-3,217500076E-2
2,317456573E1	-5,554999709E-1	-5,555000156E-2	-5,981250107E-2
2,319472922E1	-3,596999943E-1	-1,076624990E-1	-5,348749831E-2
2,321489284E1	-9,583749622E-2	-1,673374921E-1	-2,901249938E-2
2,323505622E1	-9,679999948E-2	-1,736624986E-1	-9,391249716E-2
2,325521958E1	-2,501125038E-1	-9,391249716E-2	-1,291124970E-1
2,327538303E1	-2,074874938E-1	1,924999990E-3	-5,555000156E-2
2,329554640E1	-3,726249933E-2	2,529999986E-2	-4,386249930E-2
2,331571011E1	3,932499886E-2	-3,533750027E-2	-1,407999992E-1
2,333587350E1	1,255374998E-1	-3,107500076E-2	-1,567499936E-1
2,335603689E1	2,595999837E-1	9,349999949E-3	-1,098624989E-1
2,337620027E1	1,926375031E-1	6,256250292E-2	-5,884999782E-2
2,339636365E1	3,079999983E-2	7,424999774E-2	-1,086249948E-2
2,341652727E1	-1,160499975E-1	3,066249937E-2	5,403750017E-2
2,343669075E1	-1,106875017E-1	-2,337499987E-3	6,998749822E-2
2,345685413E1	-3,726249933E-2	5,087499972E-3	6,049999967E-3
2,347701776E1	8,511249721E-2	7,741250098E-2	-2,048750035E-2
2,349718122E1	2,202749997E-1	7,535000145E-2	5,293750018E-2
2,351734460E1	2,862749994E-1	-7,150000334E-2	1,135749966E-1
2,353750797E1	2,745875120E-1	-1,736624986E-1	1,104125008E-1
2,355767136E1	2,851749957E-1	-1,673374921E-1	8,167500049E-2
2,357783499E1	2,638624907E-1	-7,576250285E-2	6,256250292E-2
2,359799837E1	1,287000030E-1	9,762500226E-2	6,888750196E-2
2,361816182E1	-5,637500063E-2	2,307250053E-1	1,497374922E-1
2,363832525E1	-1,830125004E-1	1,402499974E-1	2,594625056E-1
2,365848886E1	-2,404875010E-1	-6,517499685E-2	2,711499929E-1
2,367865221E1	-1,053249985E-1	-2,023999989E-1	2,083124965E-1
2,369881568E1	1,479499936E-1	-2,396624982E-1	1,487749964E-1
2,371897909E1	2,798124850E-1	-1,821874976E-1	7,741250098E-2
2,373914249E1	2,054249942E-1	-1,402499992E-2	2,736249939E-2
2,375930608E1	1,436875015E-1	1,988250017E-1	1,050499976E-1
2,377946947E1	1,904374957E-1	1,498750001E-1	2,424124926E-1
2,379963283E1	1,627999991E-1	-1,662375033E-1	2,785750031E-1
2,381979627E1	1,201749966E-1	-2,908124924E-1	2,211000025E-1
2,383995992E1	8,304999769E-2	-8,744999766E-2	1,775124967E-1
2,386012331E1	5,362499971E-3	2,765125036E-1	1,775124967E-1
2,388028672E1	-1,373624951E-1	5,329499841E-1	1,721500009E-1
2,390045010E1	-3,096500039E-1	5,744749904E-1	1,306249946E-1
2,392061356E1	-3,053874969E-1	4,243249893E-1	1,115124971E-1
2,394077720E1	-1,575749964E-1	1,254000068E-1	9,968750179E-2
2,396094054E1	-6,916250288E-2	-1,363999993E-1	7,315000147E-2
2,398110402E1	-5,747500062E-2	-1,482249945E-1	8,277499676E-2
2,400126743E1	8,524999954E-3	-1,354375035E-1	1,508374959E-1
2,402143082E1	2,653750032E-2	-1,821874976E-1	1,816374958E-1
2,404159440E1	-3,162499983E-3	-2,131250054E-1	1,519374996E-1
2,406175777E1	-3,616249934E-2	-1,385999918E-1	1,104125008E-1
2,408192115E1	-2,667500079E-2	9,762500226E-2	1,029874980E-1
2,410208458E1	-3,519999981E-2	2,785750031E-1	1,380500048E-1
2,412224819E1	-7,878749818E-2	2,529999912E-1	1,486375034E-1
2,414241166E1	-1,766874939E-1	1,732500046E-1	1,018875018E-1
2,416257505E1	-1,670625061E-1	1,647250056E-1	3,162499890E-2
2,418273867E1	-1,498750038E-2	1,317249984E-1	-7,699999958E-3
2,420290205E1	1,201749966E-1	9,019999951E-2	-2,791249938E-2
2,422306542E1	1,351625025E-1	9,556250274E-2	-1,306249946E-2
2,424322887E1	1,308999956E-1	9,666249901E-2	4,551250115E-2
2,426339222E1	7,232499868E-2	1,093124971E-1	3,904999793E-2
2,428355562E1	-2,763750032E-2	1,764124930E-1	2,103750035E-2
2,430371922E1	-3,299999982E-2	1,572999954E-1	6,888750196E-2
2,432388260E1	-7,562500238E-2	6,366249919E-2	1,146750003E-1
2,434404578E1	-2,224749923E-1	6,256250292E-2	1,200374961E-1
2,436420939E1	-3,426499963E-1	1,402499974E-1	1,465750039E-1
2,438437287E1	-2,799499929E-1	1,104125008E-1	1,955250055E-1
2,440453627E1	-6,063750014E-2	-1,428624988E-1	2,540999949E-1
2,442469968E1	7,768750191E-2	-3,130874932E-1	2,424124926E-1
2,444486331E1	7,768750191E-2	-2,461249977E-1	1,944250017E-1
2,446502669E1	1,278750040E-2	-1,196249947E-2	1,445125043E-1
2,448519017E1	-1,010624990E-1	1,721500009E-1	2,846249938E-2
2,450535356E1	-1,383250058E-1	2,392500043E-1	-1,258125007E-1
2,452551694E1	-3,299999982E-2	2,722499967E-1	-1,823250055E-1
2,454568054E1	8,621250093E-2	2,594625056E-1	-1,493249983E-1
2,456584389E1	5,747500062E-2	2,668874860E-1	-1,417624950E-1
2,458600727E1	-1,021625027E-1	2,934249938E-1	-1,205874979E-1
2,460617071E1	-1,479499936E-1	1,689874977E-1	5,087499972E-3
2,462633414E1	-7,452499866E-2	-1,354375035E-1	1,167374998E-1
2,464649774E1	-1,053249985E-1	-2,982375026E-1	-6,311249733E-2
2,466666113E1	-1,160499975E-1	-1,237500012E-1	-2,461249977E-1
2,468682458E1	3,079999983E-2	1,391499937E-1	-2,461249977E-1
2,470698794E1	1,255374998E-1	1,945624948E-1	-1,194875017E-1
2,472715156E1	-2,873750031E-2	6,998749822E-2	-3,107500076E-2
2,474731492E1	-9,899999946E-2	-8,855000138E-2	6,778749824E-2
2,476747831E1	1,542750001E-1	-3,716624975E-1	1,891999990E-1
2,478764172E1	3,224374950E-1	-6,930000186E-1	2,083124965E-1
2,480780515E1	2,671625018E-1	-6,866750121E-1	1,434125006E-1
2,482796852E1	5,321250111E-2	-1,289750040E-1	1,306249946E-1
2,484813213E1	-2,543750107E-1	7,851250172E-1	-2,694999985E-2
2,486829553E1	-6,641250253E-1	1,255512476E0	-4,419249892E-1
2,488845900E1	-5,321249962E-1	1,068237543E0	-4,493499994E-1
2,490862238E1	1,436875015E-1	3,562625051E-1	-6,517499685E-2
2,492878571E1	6,140750051E-1	-5,068249702E-1	2,242625058E-1
2,494894940E1	6,725124717E-1	-1,043212533E0	2,125750035E-1
2,496911278E1	5,746124983E-1	-9,516375065E-1	1,369500011E-1
2,498927616E1	3,383874893E-1	-3,705624938E-1	3,698749840E-2
2,500943954E1	3,189999983E-2	2,105125040E-1	-1,407999992E-1
2,502960291E1	-1,511124969E-1	4,094749987E-1	-3,206500113E-1
2,504976663E1	-3,596999943E-1	4,817999899E-1	-3,536500037E-1
2,506993002E1	-5,821750164E-1	5,297874808E-1	-1,907124966E-1
2,509009342E1	-6,534000039E-1	2,125750035E-1	8,167500049E-2
2,511025681E1	-5,097125173E-1	-2,470874935E-1	2,880625129E-1
2,513042026E1	-1,948374957E-1	-4,908750057E-1	2,689499855E-1
2,515058357E1	1,414874941E-1	-4,875749946E-1	1,571625024E-1
2,517074704E1	3,969624937E-1	-3,130874932E-1	1,029874980E-1
2,519091045E1	5,629249811E-1	-1,694000065E-1	1,157749966E-1
2,521107406E1	4,991250038E-1	-1,502874941E-1	1,359875053E-1
2,523123741E1	2,202749997E-1	-1,311749965E-1	1,295250058E-1
2,525140077E1	-1,278750040E-2	-7,699999958E-3	1,348875016E-1
2,527156423E1	2,337500080E-2	1,700875014E-1	1,795749962E-1
2,529172762E1	1,511124969E-1	3,019500077E-1	1,795749962E-1
2,531189103E1	1,553750038E-1	3,573625088E-1	1,284250021E-1
2,533205464E1	6,489999592E-2	3,232625127E-1	1,434125006E-1
2,535221802E1	-5,115000159E-2	2,563000023E-1	2,391124964E-1
2,537238140E1	-9,363749623E-2	2,094125003E-1	3,190000057E-1
2,539254486E1	-1,064250022E-1	8,813749999E-2	2,838000059E-1
2,541270824E1	-2,021249942E-2	-9,913749993E-2	1,944250017E-1
2,543287186E1	1,958000064E-1	-2,162874937E-1	1,039500013E-1
2,545303525E1	3,596999943E-1	-1,727000028E-1	3,162499890E-2
2,547319874E1	4,032875001E-1	-8,002500236E-2	-3,327500075E-2
2,549336214E1	2,096875012E-1	-5,499999970E-3	-5,775000155E-2
2,551352553E1	-1,203124970E-1	2,094125003E-1	2,736249939E-2
2,553368892E1	-2,117500007E-1	3,594250083E-1	2,923249900E-1
2,555385230E1	-6,283749640E-2	8,813749999E-2	5,541250110E-1
2,557401589E1	-2,983750030E-2	-3,557125032E-1	4,934875071E-1
2,559417927E1	-9,899999946E-2	-4,397250116E-1	3,019500077E-1
2,561434271E1	-1,288374960E-1	-1,141249985E-1	2,604250014E-1
2,563450611E1	-1,010624990E-1	4,499000013E-1	3,392125070E-1
2,565466949E1	-1,744875014E-1	8,138625026E-1	4,328500032E-1
2,567483313E1	-4,140124917E-1	8,351749778E-1	4,391750097E-1
2,569499648E1	-5,992249846E-1	6,351125240E-1	4,265249968E-1
2,571515990E1	-5,662249923E-1	2,817375064E-1	4,349125028E-1
2,573532331E1	-2,299000025E-1	-5,664999783E-2	4,999499917E-1
2,575548669E1	1,042250022E-1	-2,216500044E-1	5,042124987E-1
2,577565017E1	2,532750070E-1	-2,950749993E-1	4,434374869E-1
2,579581354E1	3,298625052E-1	-3,535124958E-1	4,137375057E-1
2,581597693E1	2,777499855E-1	-3,876124918E-1	3,508999944E-1
2,583614061E1	5,211250111E-2	-2,737624943E-1	2,561624944E-1
2,585630389E1	-1,989624947E-1	-8,855000138E-2	1,849374920E-1
2,587646735E1	-3,639625013E-1	1,988250017E-1	1,731124967E-1
2,589663073E1	-4,320249856E-1	4,839999974E-1	9,968750179E-2
2,591679407E1	-4,566375017E-1	7,117000222E-1	-5,664999783E-2
2,593695742E1	-3,278000057E-1	7,851250172E-1	-2,312749922E-1
2,595712078E1	-1,498750038E-2	5,031124949E-1	-2,631750107E-1
2,597728442E1	3,161124885E-1	-3,217500076E-2	-1,823250055E-1
2,599744783E1	4,384875000E-1	-5,845124722E-1	-1,226499975E-1
2,601761122E1	5,119125247E-1	-8,600624800E-1	-1,205874979E-1
2,603777464E1	6,087124944E-1	-7,962625027E-1	-1,396999955E-1
2,605793811E1	6,204000115E-1	-5,227749944E-1	-2,205500007E-1
2,607810149E1	5,224999785E-1	-2,587749958E-1	-4,270749986E-1
2,609826512E1	4,351874888E-1	2,213750035E-2	-6,015625000E-1
2,611842832E1	3,969624937E-1	2,626250088E-1	-6,078875065E-1
2,613859198E1	2,692250013E-1	3,977875113E-1	-5,132874846E-1
2,615875547E1	4,042499885E-2	4,595249891E-1	-3,334375024E-1
2,617891882E1	-2,671625018E-1	5,233250260E-1	-1,865874976E-1
2,619908223E1	-5,193374753E-1	5,159000158E-1	-5,032499880E-2
2,621924560E1	-5,139750242E-1	4,371125102E-1	1,199000031E-1
2,623940898E1	-3,394874930E-1	2,392500043E-1	2,752749920E-1
2,625957258E1	-2,586374879E-1	2,213750035E-2	3,796375096E-1
2,627973599E1	-3,161124885E-1	-6,599999964E-3	3,870624900E-1
2,629989937E1	-2,597374916E-1	1,625249982E-1	4,339500070E-1
2,632006271E1	-1,351625025E-1	2,296250015E-1	4,914250076E-1
2,634022616E1	-1,639000028E-1	9,982500225E-2	4,786374867E-1
2,636038953E1	-2,341624945E-1	-7,699999958E-3	4,456374943E-1
2,638055289E1	-1,820500046E-1	-5,018749833E-2	4,658499956E-1
2,640071626E1	-8,084999770E-2	-8,318749815E-2	4,999499917E-1
2,642087987E1	-7,768750191E-2	-1,183874980E-1	4,797374904E-1
2,644104324E1	-1,863124967E-1	-1,300749928E-1	4,147000015E-1
2,646120662E1	-2,224749923E-1	-5,444999784E-2	3,232625127E-1
2,648136999E1	-1,266375035E-1	7,535000145E-2	2,188999951E-1
2,650153345E1	-8,415000141E-2	1,743499935E-1	9,019999951E-2
2,652169708E1	-1,043625027E-1	1,849374920E-1	-7,796250284E-2
2,654186025E1	-1,383250058E-1	1,945624948E-1	-2,524499893E-1
2,656202364E1	-1,266375035E-1	2,754124999E-1	-3,588750064E-1
2,658218726E1	-2,763750032E-2	3,147374988E-1	-3,355000019E-1
2,660235065E1	2,128500044E-1	2,019875050E-1	-2,259124964E-1
2,662251411E1	3,702875078E-1	-5,238749832E-2	-1,621125042E-1
2,664267751E1	3,181749880E-1	-2,418625057E-1	-1,621125042E-1
2,666284092E1	2,532750070E-1	-1,311749965E-1	-1,704999954E-1
2,668300454E1	1,425874978E-1	1,678874940E-1	-1,673374921E-1
2,670316792E1	5,637500063E-2	4,083749950E-1	-9,075000137E-2
2,672333131E1	5,527500063E-2	4,020499885E-1	5,073750019E-2
2,674349468E1	1,553750038E-1	2,168374956E-1	2,061125040E-1
2,676365803E1	2,393874973E-1	-5,664999783E-2	2,583625019E-1
2,678382140E1	2,447499931E-1	-1,300749928E-1	2,635875046E-1
2,680398486E1	3,341250122E-1	3,588749841E-2	3,093749881E-1
2,682414823E1	3,905000091E-1	1,753125042E-1	3,647874892E-1
2,684431153E1	3,064875007E-1	2,019875050E-1	4,104374945E-1
2,686447499E1	1,361249983E-1	1,806750000E-1	4,796000123E-1
2,688463838E1	-3,299999982E-2	1,328250021E-1	5,817624927E-1
2,690480174E1	-1,692624986E-1	9,129999578E-2	6,084374785E-1
2,692496512E1	-2,480500042E-1	1,551000029E-1	5,882250071E-1
2,694512851E1	-3,033249974E-1	2,881999910E-1	5,700749755E-1
2,696529191E1	-3,064875007E-1	3,306874931E-1	6,158624887E-1
2,698545553E1	-3,012624979E-1	2,062499970E-1	6,701750159E-1
2,700561893E1	-2,447499931E-1	1,141249947E-2	6,807624698E-1
2,702578232E1	-4,372499883E-2	-1,183874980E-1	6,520249844E-1
2,704594567E1	1,766874939E-1	-2,140875012E-1	6,275500059E-1
2,706610905E1	3,489750028E-1	-2,450249940E-1	6,041749716E-1
2,708627250E1	3,724874854E-1	-1,363999993E-1	5,296499729E-1
2,710643587E1	2,223374993E-1	1,306249946E-1	4,658499956E-1
2,712659928E1	6,379999965E-2	5,297874808E-1	4,966500103E-1
2,714676270E1	3,162499983E-3	7,053750157E-1	6,041749716E-1
2,716692630E1	4,042499885E-2	6,032124758E-1	5,776374936E-1
2,718708969E1	1,255374998E-1	3,147374988E-1	4,508624971E-1
2,720725308E1	1,372250021E-1	1,285624951E-1	3,838999867E-1
2,722741648E1	6,489999592E-2	2,498375028E-1	3,817000091E-1
2,724757988E1	6,916250288E-2	3,914625049E-1	4,349125028E-1
2,726774329E1	1,639000028E-1	4,052124918E-1	4,743750095E-1
2,728790670E1	8,291249722E-2	2,551999986E-1	4,115374982E-1
2,730807019E1	-2,000624985E-1	1,285624951E-1	3,486999869E-1
2,732823355E1	-4,959625006E-1	1,923625022E-1	3,849999905E-1
2,734839717E1	-6,502375007E-1	3,019500077E-1	5,094375014E-1
2,736856031E1	-6,747124791E-1	1,274625063E-1	6,499624848E-1
2,738872391E1	-6,811749935E-1	-2,109249979E-1	6,744375229E-1
2,740888706E1	-5,736500025E-1	-4,780874848E-1	6,477624774E-1
2,742905068E1	-2,564375103E-1	-4,951374829E-1	6,445999742E-1
2,744921415E1	1,500124931E-1	-3,566749990E-1	6,147624850E-1
2,746937745E1	4,511374831E-1	-3,269749880E-1	5,999125242E-1
2,748954086E1	6,832374930E-1	-4,098874927E-1	6,223250031E-1
2,750970432E1	6,895624995E-1	-5,526124835E-1	6,073374748E-1
2,752986770E1	5,043500066E-1	-4,397250116E-1	5,700749755E-1
2,755003133E1	8,304999769E-2	-5,128749833E-2	5,361124873E-1
2,757019449E1	-3,129499853E-1	5,915250182E-1	5,913875103E-1
2,759035789E1	-5,693874955E-1	1,114987493E0	7,382375002E-1
2,761052127E1	-7,545999885E-1	1,299100041E0	8,511250019E-1
2,763068463E1	-7,577624917E-1	1,182087541E0	8,223875165E-1
2,765084822E1	-4,937624931E-1	8,830249906E-1	7,085375190E-1
2,767101136E1	-9,047500044E-2	5,659499764E-1	6,892874837E-1
2,769117497E1	2,106499970E-1	2,157374918E-1	7,510250211E-1
2,771133834E1	1,192125008E-1	-1,622499898E-2	7,797625065E-1
2,773150174E1	-1,479499936E-1	5,623750016E-2	7,882875204E-1
2,775166513E1	-1,830125004E-1	2,318249941E-1	8,276125193E-1
2,777182850E1	9,996250272E-2	3,272499889E-2	8,967750072E-1
2,779199187E1	2,681249976E-1	-4,024625123E-1	8,722999692E-1
2,781215534E1	1,457500011E-1	-6,877750158E-1	7,425000072E-1
2,783231872E1	-2,617999911E-1	-5,099874735E-1	5,691124797E-1
2,785248212E1	-5,810750127E-1	4,350500107E-1	4,849624932E-1
2,787264548E1	-6,300249696E-1	1,739787459E0	5,498625040E-1
2,789280908E1	-4,703874886E-1	2,399512529E0	5,871250033E-1
2,791297247E1	-3,519999981E-2	1,945075035E0	4,828999937E-1
2,793313584E1	4,883999825E-1	9,799624681E-1	5,275874734E-1
2,795329921E1	6,258999705E-1	-4,592499882E-2	6,817250252E-1
2,797346267E1	3,375625014E-1	-5,227749944E-1	7,475875020E-1
2,799362599E1	-1,787500083E-2	-2,980999947E-1	7,827875018E-1
2,801378937E1	4,798749834E-2	1,732500046E-1	9,476500154E-1
2,803395279E1	3,427875042E-1	1,956624985E-1	1,108387470E0
2,805411617E1	3,385249972E-1	-9,061250091E-2	1,032899976E0
2,807427956E1	-4,344999790E-2	-2,417249978E-1	8,104249835E-1
2,809444294E1	-4,989874959E-1	7,961250097E-2	6,582124829E-1
2,811460640E1	-5,266249776E-1	8,320124745E-1	6,943749785E-1
2,813476972E1	-2,924624979E-1	1,103437543E0	8,007999659E-1
2,815493321E1	-6,792499870E-2	7,745375037E-1	7,284749746E-1
2,817509660E1	-1,754499972E-1	2,551999986E-1	4,677749872E-1
2,819525998E1	-4,181374907E-1	2,913624942E-1	3,624500036E-1
2,821542334E1	-2,903999984E-1	7,181624770E-1	4,837250113E-1
2,823558673E1	1,278750002E-1	7,202249765E-1	6,784250140E-1
2,825575013E1	4,024625123E-1	2,711499929E-1	7,050999999E-1
2,827591353E1	3,865124881E-1	-3,481499851E-1	7,028999925E-1
2,829607694E1	3,375625014E-1	-6,759499907E-1	7,838875055E-1
2,831624055E1	2,491499931E-1	-4,652999938E-1	1,016950011E0
2,833640371E1	1,065625027E-1	6,500999928E-1	1,545774937E0
2,835656711E1	-1,339250058E-1	1,005537510E0	1,126537442E0
2,837673079E1	-2,998875082E-1	3,467749953E-1	-1,973125041E-1
2,839689412E1	-3,658874929E-1	1,839749962E-1	-1,079650044E0
2,841705726E1	-1,850749999E-1	7,469000220E-1	-9,092875123E-1
2,843722088E1	3,854124844E-1	1,019287467E0	-1,649999991E-2
2,845738426E1	7,972249985E-1	5,106750131E-1	6,231499910E-1
2,847754765E1	9,004874825E-1	-3,470500112E-1	6,710000038E-1
2,849771103E1	7,770124674E-1	-8,515374660E-1	6,040375233E-1
2,851787441E1	5,556374788E-1	-7,782500237E-2	9,072250128E-1
2,853803778E1	1,406625062E-1	9,820249677E-1	8,135874867E-1
2,855820118E1	-3,616249859E-1	6,638500094E-1	1,123374999E-1
2,857836453E1	-6,182000041E-1	4,276250005E-1	-5,802499875E-2
2,859852798E1	-6,245250106E-1	7,745375037E-1	3,986124992E-1
2,861869130E1	-7,192624807E-1	1,213024974E0	8,497499824E-1
2,863885466E1	-1,125712514E0	1,142762542E0	9,976999760E-1
2,865901803E1	-1,156649947E0	8,106999993E-1	1,124337435E0
2,867918149E1	-6,777374744E-1	4,042499959E-1	1,272287488E0
2,869934481E1	-1,999250054E-1	1,519374996E-1	1,260599971E0
2,871950817E1	-6,792499870E-2	2,594625056E-1	1,159537435E0
2,873967159E1	-4,344999790E-2	5,116375089E-1	1,126537442E0
2,875983497E1	-8,071249723E-2	6,074749827E-1	1,155274987E0
2,877999840E1	-1,318625063E-1	5,978500247E-1	1,207387447E0
2,880016183E1	-2,690874934E-1	6,191624999E-1	1,288237453E0
2,882032520E1	-3,914625049E-1	7,277874947E-1	1,378712535E0
2,884048859E1	-4,521000087E-1	6,521624923E-1	1,319175005E0
2,886065195E1	-3,871999979E-1	4,415124953E-1	1,009387493E0
2,888081534E1	-2,360875010E-1	4,350500107E-1	6,369000077E-1
2,890097874E1	-1,691249944E-2	5,798375010E-1	4,390375018E-1
2,892114212E1	1,417624950E-1	6,990500093E-1	3,869250119E-1
2,894130550E1	1,299374998E-1	6,510624886E-1	4,102999866E-1
2,896146862E1	-1,154999994E-2	5,702124834E-1	4,890874922E-1
2,898163201E1	-6,586249918E-2	5,351499915E-1	5,304750204E-1
2,900179564E1	-1,691249944E-2	4,819374979E-1	5,081999898E-1
2,902195880E1	-4,124999978E-3	4,415124953E-1	4,294124842E-1
2,904212217E1	-3,396249935E-2	5,064125061E-1	3,634124994E-1
2,906228577E1	-1,148125008E-1	6,117374897E-1	3,251875043E-1
2,908244915E1	-1,828749925E-1	6,925874949E-1	3,155624866E-1
2,910261257E1	-2,307250053E-1	6,478999853E-1	3,070375025E-1
2,912277594E1	-2,509374917E-1	5,744749904E-1	3,368749917E-1
2,914293932E1	-2,062499970E-1	5,436750054E-1	3,761999905E-1
2,916310271E1	-1,009249985E-1	4,862000048E-1	3,750999868E-1
2,918326611E1	-8,181250095E-2	3,701499999E-1	3,337124884E-1
2,920342949E1	-9,350000322E-2	3,095124960E-1	2,847625017E-1
2,922359288E1	-6,476250291E-2	3,595624864E-1	2,814624906E-1
2,924375625E1	-6,366249919E-2	4,085125029E-1	2,857249975E-1
2,926391963E1	-1,126125008E-1	3,445749879E-1	2,814624906E-1
2,928408302E1	-1,797125041E-1	2,116124928E-1	2,623499930E-1
2,930424619E1	-2,360875010E-1	1,839749962E-1	2,347124964E-1
2,932440958E1	-2,690874934E-1	2,850374877E-1	2,048749924E-1
2,934457320E1	-2,776125073E-1	3,712500036E-1	1,655499935E-1
2,936473656E1	-2,648249865E-1	3,425124884E-1	1,368124932E-1
2,938489971E1	-2,796750069E-1	2,733500004E-1	1,143999994E-1
2,940506307E1	-3,712500036E-1	1,924999952E-1	7,823749632E-2
2,942522643E1	-4,201999903E-1	2,084500045E-1	6,764999777E-2
2,944538982E1	-3,126749992E-1	2,030874938E-1	7,713750005E-2
2,946555318E1	-1,318625063E-1	9,129999578E-2	7,287500054E-2
2,948571661E1	-3,176249936E-2	2,529999986E-2	3,244999796E-2
2,950587996E1	4,798749834E-2	4,771250114E-2	2,502499893E-2
2,952604335E1	9,377499670E-2	5,307500064E-2	3,891250119E-2
2,954620673E1	7,356250286E-2	4,124999978E-3	5,692499876E-2
2,956637012E1	2,887500077E-2	-1,374999993E-4	6,861250103E-2
2,958653350E1	-1,264999993E-2	4,881250113E-2	7,823749632E-2
2,960669690E1	-8,181250095E-2	7,328750193E-2	8,566249907E-2
2,962686030E1	-2,286625057E-1	1,040875018E-1	9,308750182E-2
2,964702365E1	-3,191374838E-1	2,275625020E-1	1,388749927E-1
2,966718696E1	-3,447124958E-1	3,297249973E-1	1,920875013E-1
2,968735036E1	-3,531000018E-1	3,350875080E-1	2,037750036E-1
2,970751374E1	-3,137750030E-1	2,616625130E-1	1,900250018E-1
2,972767714E1	-2,403499931E-1	1,871374995E-1	1,963499933E-1
2,974784060E1	-1,871374995E-1	1,285624951E-1	2,048749924E-1
2,976800400E1	-1,934625059E-1	1,126125008E-1	1,974499971E-1
2,978816727E1	-2,212374955E-1	1,328250021E-1	1,698125005E-1
2,980833067E1	-2,499749959E-1	1,509750038E-1	1,336500049E-1
2,982849406E1	-2,425500005E-1	1,722874939E-1	1,080750003E-1
2,984865750E1	-2,255000025E-1	1,583999991E-1	7,081250101E-2
2,986882080E1	-2,105125040E-1	1,552374959E-1	1,539999992E-2
2,988898417E1	-1,637624949E-1	1,871374995E-1	-2,708750032E-2
2,990914754E1	-9,886249900E-2	2,222000062E-1	-4,413750023E-2
2,992931094E1	-5,733750015E-2	1,775124967E-1	-6,118749827E-2
2,994947433E1	-1,581249945E-2	1,243000031E-1	-6,324999779E-2
2,996963750E1	7,562499959E-3	7,108750194E-2	-5,376249924E-2
2,998980089E1	-3,712499887E-2	1,787500083E-2	-4,633750021E-2
3,000996427E1	-1,988250017E-1	9,349999949E-3	-3,987500072E-2
3,003012765E1	-3,755125105E-1	1,105500013E-1	2,749999985E-3
3,005029103E1	-4,096125066E-1	2,307250053E-1	6,861250103E-2
3,007045444E1	-3,979249895E-1	1,456124932E-1	7,713750005E-2
3,009061782E1	-3,818374872E-1	-3,313750029E-2	1,113750041E-2
3,011078120E1	-2,881999910E-1	-1,119249985E-1	-3,451250121E-2
3,013094457E1	-1,105500013E-1	-6,077500060E-2	-6,324999779E-2
3,015110796E1	9,693749994E-2	-2,461249940E-2	-6,971249729E-2
3,017127127E1	1,768250018E-1	-7,576250285E-2	-1,175625026E-1
3,019143470E1	1,907124966E-1	-1,076624990E-1	-1,718750000E-1
3,021159810E1	1,469874978E-1	-6,599999964E-3	-1,974499971E-1
3,023176150E1	3,313750029E-2	1,487749964E-1	-1,761374921E-1
3,025192491E1	-1,105500013E-1	2,179374993E-1	-8,772499859E-2
3,027208830E1	-1,530375034E-1	1,637624949E-1	-6,874999963E-3
3,029225144E1	-1,392875016E-1	3,286249936E-2	1,966249943E-2
3,031241482E1	-7,961250097E-2	-4,276249930E-2	-7,974999957E-3
3,033257822E1	-1,264999993E-2	4,771250114E-2	-1,429999992E-2
3,035274162E1	-3,602499887E-2	1,999250054E-1	5,912499968E-3
3,037290500E1	-1,073874980E-1	2,116124928E-1	4,743750021E-2
3,039306839E1	-9,129999578E-2	1,040875018E-1	1,123374999E-1
3,041323174E1	5,499999970E-3	-3,629999980E-2	1,388749927E-1
3,043339513E1	8,098749816E-2	-1,502874941E-1	1,058750004E-1
3,045355853E1	1,342000067E-1	-1,427250057E-1	4,317500070E-2
3,047372192E1	1,310375035E-1	-5,981250107E-2	-1,856249943E-2
3,049388524E1	4,056249931E-2	-3,629999980E-2	-4,523750022E-2
3,051404860E1	-3,066249937E-2	-3,533750027E-2	-4,949999973E-2
3,053421200E1	-8,717499673E-2	-2,681249939E-2	-5,156249925E-2
3,055437539E1	-8,071249723E-2	1,361249946E-2	-5,692499876E-2
3,057453878E1	-1,787500083E-2	8,249999955E-4	-1,016125008E-1
3,059470191E1	3,849999979E-2	-2,887500077E-2	-1,687124968E-1
3,061486530E1	5,444999784E-2	-3,313750029E-2	-2,017125040E-1
3,063502870E1	7,039999962E-2	-3,533750027E-2	-1,920875013E-1
3,065519206E1	8,662499487E-3	-5,761250108E-2	-1,974499971E-1
3,067535545E1	-1,148125008E-1	-1,086249948E-2	-2,219250053E-1
3,069551885E1	-1,882375032E-1	1,211374998E-1	-1,813624948E-1
3,071568209E1	-1,945624948E-1	1,487749964E-1	-1,069749966E-1
3,073584548E1	-1,913999915E-1	1,471249945E-2	-4,207500070E-2
3,075600887E1	-8,071249723E-2	-9,913749993E-2	-1,966249943E-2
3,077617226E1	1,054624990E-1	-6,407500058E-2	-3,987500072E-2
3,079633564E1	2,235749960E-1	-1,374999993E-4	-5,582499877E-2
3,081649903E1	1,959374994E-1	-1,608750038E-2	-5,156249925E-2
3,083666241E1	1,438249946E-1	-6,407500058E-2	1,649999991E-3
3,085682554E1	8,098749816E-2	-1,119249985E-1	1,759999990E-2
3,087698914E1	1,608750038E-2	-9,487500042E-2	-1,223750040E-2
3,089715231E1	-2,639999986E-2	2,749999985E-2	-5,046249926E-2
3,091731571E1	-6,476250291E-2	1,200374961E-1	-7,493750006E-2
3,093747901E1	-1,126125008E-1	9,350000322E-2	-9,198749810E-2
3,095764238E1	-1,413500011E-1	4,455000162E-2	-1,047749966E-1
3,097780578E1	-9,350000322E-2	-1,512499992E-2	-1,197625026E-1
3,099796916E1	8,662499487E-3	-4,908749834E-2	-1,707749963E-1
3,101813253E1	9,803749621E-2	2,529999986E-2	-2,473624945E-1
3,103829591E1	1,725624949E-1	1,595000029E-1	-2,666125000E-1
3,105845928E1	2,747249901E-1	1,999250054E-1	-2,228875011E-1
3,107862244E1	3,194124997E-1	1,051874980E-1	-1,579875052E-1
3,109878605E1	1,788875014E-1	-1,182499994E-2	-1,005124971E-1
3,111894922E1	9,803749621E-2	-3,739999980E-2	-1,759999990E-2
3,113911260E1	1,065625027E-1	-3,203750029E-2	5,692499876E-2
3,115927600E1	1,023000032E-1	-1,033999994E-1	5,059999973E-2
3,117943932E1	4,056249931E-2	-1,033999994E-1	1,539999992E-2
3,119960270E1	2,337499987E-3	5,403750017E-2	7,974999957E-3
3,121976611E1	-1,581249945E-2	1,891999990E-1	3,561250120E-2
3,123992951E1	-2,323750034E-2	1,680250019E-1	4,207500070E-2
3,126009290E1	1,828750037E-2	1,361249946E-2	4,207500070E-2
3,128025627E1	1,256749928E-1	-1,704999954E-1	5,692499876E-2
3,130041943E1	1,586750001E-1	-2,151875049E-1	1,759999990E-2
3,132058282E1	1,427250057E-1	-5,555000156E-2	-3,561250120E-2
3,134074617E1	1,427250057E-1	6,256250292E-2	5,499999970E-4
3,136090948E1	1,299374998E-1	-7,562499959E-3	3,891250119E-2
3,138107296E1	7,466249913E-2	-1,502874941E-1	3,561250120E-2
3,140123624E1	3,313750029E-2	-1,352999955E-1	1,869999990E-2
3,142139970E1	4,056249931E-2	4,235000163E-2	1,113750041E-2
3,144156301E1	2,571249940E-2	1,478125006E-1	3,671250120E-2
3,146172641E1	-2,859999985E-2	7,328750193E-2	1,101374999E-1
3,148188955E1	-6,682500243E-2	-2,791249938E-2	1,729750037E-1
3,150205292E1	-8,071249723E-2	-5,761250108E-2	1,750375032E-1
3,152221653E1	-7,864999771E-2	-2,034999989E-2	1,442375034E-1
3,154237992E1	-3,918749839E-2	5,623750016E-2	1,271875054E-1
3,156254306E1	-2,117500082E-2	4,977500066E-2	1,368124932E-1
3,158270643E1	-4,028749838E-2	-4,702499881E-2	1,527625024E-1
3,160286980E1	-7,108750194E-2	-1,215500012E-1	1,335124969E-1
3,162303319E1	-4,991250113E-2	-8,098749816E-2	8,359999955E-2
3,164319650E1	2,144999988E-2	3,602499887E-2	2,818750031E-2
3,166335966E1	6,077500060E-2	4,564999789E-2	5,499999970E-4
3,168352329E1	6,297499686E-2	-2,791249938E-2	-5,499999970E-4
3,170368666E1	-1,471249945E-2	-2,034999989E-2	-1,759999990E-2
3,172385003E1	-1,190750003E-1	7,108750194E-2	-5,376249924E-2
3,174401320E1	-1,116499975E-1	9,459999949E-2	-4,949999973E-2
3,176417658E1	-9,459999949E-2	4,138749838E-2	-5,156249925E-2
3,178433987E1	-4,235000163E-2	-1,608750038E-2	-4,949999973E-2
3,180450326E1	-2,749999985E-2	-8,524999768E-2	-7,287500054E-2
3,182466664E1	7,562499959E-3	-1,023000032E-1	-1,016125008E-1
3,184483005E1	6,297499686E-2	-1,938750036E-2	-1,420374960E-1
3,186499318E1	7,356250286E-2	5,829999968E-2	-1,559250057E-1
3,188515655E1	4,798749834E-2	5,087499972E-3	-1,292500049E-1
3,190531996E1	6,393750012E-2	-7,686249912E-2	-1,101374999E-1
3,192548324E1	1,023000032E-1	-5,018749833E-2	-1,240250021E-1
3,194564666E1	1,139874980E-1	5,513750017E-2	-1,463000029E-1
3,196581006E1	1,193500012E-1	7,012499869E-2	-1,292500049E-1
3,198597322E1	1,161874980E-1	8,249999955E-4	-1,005124971E-1
3,200613660E1	1,342000067E-1	-3,107500076E-2	-9,102500230E-2
3,202629999E1	1,555124968E-1	-3,299999982E-3	-1,005124971E-1
3,204646339E1	1,555124968E-1	2,007500082E-2	-9,308750182E-2
3,206662673E1	1,108250022E-1	1,897500083E-2	-4,839999974E-2
3,208679019E1	1,119249985E-1	-6,613750011E-2	5,486249924E-2
3,210695349E1	1,193500012E-1	-1,970375031E-1	1,080750003E-1
3,212711685E1	1,406625062E-1	-2,066625059E-1	9,418749809E-2
3,214728024E1	1,608749926E-1	-1,065625027E-1	5,912499875E-2
3,216744362E1	4,482499883E-2	-2,337499987E-3	2,186249942E-2
3,218760678E1	-8,813749999E-2	2,116124928E-1	6,008749828E-2
3,220777016E1	-1,839749962E-1	3,755125105E-1	1,579875052E-1
3,222793356E1	-1,871374995E-1	3,212000132E-1	2,888875008E-1
3,224809693E1	1,608750038E-2	4,235000163E-2	3,581874967E-1
3,226826022E1	2,087250054E-1	-2,289374918E-1	2,985124886E-1
3,228842361E1	2,736249864E-1	-2,938374877E-1	2,389750034E-1
3,230858677E1	2,736249864E-1	-1,586750001E-1	1,824624985E-1
3,232875013E1	1,683000028E-1	8,607500046E-2	1,240250021E-1
3,234891375E1	9,762499481E-3	3,393499851E-1	1,282874942E-1
3,236907690E1	-1,615625024E-1	4,096125066E-1	1,963499933E-1
3,238924030E1	-2,839374840E-1	3,425124884E-1	2,634499967E-1
3,240940369E1	-2,585000098E-1	1,328250021E-1	2,708750069E-1
3,242956697E1	-8,717499673E-2	-1,375000030E-1	1,952500045E-1
3,244973036E1	1,289750040E-1	-1,502874941E-1	6,118749827E-2
3,246989373E1	1,640374959E-1	2,749999985E-2	-1,003750041E-2
3,249005711E1	-1,787500083E-2	1,839749962E-1	2,296249941E-2
3,251022026E1	-2,158749998E-1	2,701874971E-1	1,388749927E-1
3,253038366E1	-2,754124999E-1	2,668874860E-1	1,931875050E-1
3,255054703E1	-2,371875048E-1	8,387500048E-2	1,761374921E-1
3,257071035E1	-1,924999952E-1	-1,267749965E-1	1,197625026E-1
3,259087373E1	-1,040875018E-1	-1,534499973E-1	7,713750005E-2
3,261103712E1	-7,287499961E-3	-2,461249940E-2	5,376249924E-2
3,263120027E1	6,187500060E-2	7,287499961E-3	2,502499893E-2
3,265136365E1	1,214125007E-1	-6,613750011E-2	-3,712499980E-3
3,267152704E1	1,480875015E-1	-1,310375035E-1	-5,156249925E-2
3,269169036E1	1,406625062E-1	-1,108250022E-1	-1,016125008E-1
3,271185374E1	1,289750040E-1	-2,681249939E-2	-1,335124969E-1
3,273201712E1	5,444999784E-2	7,424999774E-2	-1,813624948E-1
3,275218050E1	-5,733750015E-2	1,934625059E-1	-2,325125039E-1
3,277234387E1	-1,009249985E-1	2,520374954E-1	-2,495625019E-1
3,279250727E1	-9,556250274E-2	2,286625057E-1	-2,219250053E-1
3,281267042E1	-5,623750016E-2	1,456124932E-1	-1,739374995E-1
3,283283380E1	-2,859999985E-2	4,028749838E-2	-1,335124969E-1
3,285299717E1	-6,792499870E-2	-8,002500236E-2	-9,844999760E-2
3,287316056E1	-1,296624988E-1	-9,171249717E-2	-8,249999583E-2
3,289332388E1	-1,051874980E-1	8,249999955E-4	-5,898749828E-2
3,291348705E1	-4,881250113E-2	-2,887500077E-2	-3,671250120E-2
3,293365043E1	-2,117500082E-2	-1,480875015E-1	-2,708750032E-2
3,295381382E1	3,533750027E-2	-1,927749962E-1	-4,729999974E-2
3,297397744E1	1,948374957E-1	-1,480875015E-1	-6,544999778E-2
3,299414058E1	3,247750103E-1	-1,608749926E-1	-8,249999583E-2
3,301430396E1	3,364624977E-1	-1,523499936E-1	-1,090374961E-1
3,303446725E1	1,948374957E-1	-8,635000139E-2	-1,505624950E-1
3,305463063E1	-1,471249945E-2	7,644999772E-2	-1,867250055E-1
3,307479408E1	-1,945624948E-1	2,989250124E-1	-1,772374958E-1
3,309495714E1	-3,095124960E-1	4,170374870E-1	-1,260875016E-1
3,311512051E1	-3,542000055E-1	3,849999905E-1	-9,102500230E-2
3,313528388E1	-1,956624985E-1	2,818749845E-1	-1,036750004E-1
3,315544719E1	4,056249931E-2	1,711875051E-1	-1,484999955E-1
3,317561059E1	2,246749997E-1	6,159999967E-2	-1,451999992E-1
3,319577401E1	2,662000060E-1	-3,629999980E-2	-7,081250101E-2
3,321593718E1	2,087250054E-1	-1,033999994E-1	1,539999992E-2
3,323610082E1	1,619749963E-1	-1,182499975E-1	9,212499857E-2
3,325626399E1	1,449249983E-1	-1,864500046E-1	1,718750000E-1
3,327642759E1	1,523499936E-1	-2,630375028E-1	2,144999951E-1
3,329659075E1	1,225124970E-1	-2,044624984E-1	1,835625023E-1
3,331675404E1	1,072499994E-2	-4,386249930E-2	1,260875016E-1
3,333691744E1	-3,602499887E-2	1,478125006E-1	1,325500011E-1
3,335708081E1	-3,396249935E-2	1,658249944E-1	1,601874977E-1
3,337724397E1	-4,455000162E-2	5,197500065E-2	1,579875052E-1
3,339740736E1	-3,712499887E-2	-7,150000334E-2	1,240250021E-1
3,341757073E1	2,571249940E-2	-7,686249912E-2	7,397499681E-2
3,343773411E1	5,651250109E-2	3,602499887E-2	2,818750031E-2
3,345789742E1	2,571249940E-2	9,556250274E-2	1,443750039E-2
3,347806080E1	-3,396249935E-2	4,661250114E-2	4,317500070E-2
3,349822428E1	-6,586249918E-2	-2,461249940E-2	7,397499681E-2
3,351838735E1	-5,623750016E-2	-7,150000334E-2	6,008749828E-2
3,353855094E1	-8,181250095E-2	2,529999986E-2	4,812499974E-3
3,355871410E1	-6,366249919E-2	1,806750000E-1	1,539999992E-2
3,357887748E1	9,762499481E-3	1,040875018E-1	7,617499679E-2
3,359904076E1	-2,749999985E-2	-9,597499669E-2	5,802499875E-2
3,361920416E1	-1,009249985E-1	-8,428750187E-2	1,017499994E-2
3,363936756E1	-1,264999993E-2	6,586249918E-2	3,464999795E-2
3,365953096E1	1,130250022E-1	3,066249937E-2	5,912499875E-2
3,367969411E1	4,908749834E-2	-9,377499670E-2	1,443750039E-2
3,369985750E1	-5,939999968E-2	-7,259999961E-2	-4,413750023E-2
3,372002089E1	-7,864999771E-2	1,478125006E-1	-6,324999779E-2
3,374018420E1	-4,881250113E-2	2,286625057E-1	-7,493750006E-2
3,376034758E1	-8,497499675E-2	3,918749839E-2	-7,397499681E-2
3,378051098E1	-6,159999967E-2	-1,874125004E-1	-7,974999957E-3
3,380067435E1	1,374999993E-4	-2,630375028E-1	6,971249729E-2
3,382083748E1	5,871250108E-2	-2,151875049E-1	1,218250021E-1
3,384100086E1	1,204499975E-1	-1,907124966E-1	1,410750002E-1
3,386116424E1	6,297499686E-2	-2,363625020E-1	1,271875054E-1
3,388132754E1	-5,843750015E-2	-2,140875012E-1	1,069749966E-1
3,390149094E1	-1,445125043E-1	-4,399999976E-3	6,228749827E-2
3,392165409E1	-1,413500011E-1	2,381500006E-1	2,186249942E-2
3,394181746E1	-8,181250095E-2	2,477750033E-1	7,974999957E-3
3,396198084E1	2,144999988E-2	7,755000144E-2	-1,003750041E-2
3,398214414E1	1,395625025E-1	-8,002500236E-2	-2,708750032E-2
3,400230761E1	2,320999950E-1	-1,588124931E-1	6,874999963E-3
3,402247101E1	2,459875047E-1	-1,619749963E-1	-4,812499974E-3
3,404263442E1	1,417624950E-1	-9,171249717E-2	-4,097500071E-2
3,406279773E1	8,662499487E-3	7,535000145E-2	-5,266249925E-2
3,408296112E1	-2,433750033E-2	1,626625061E-1	-1,966249943E-2
3,410312450E1	-1,361249946E-2	7,535000145E-2	2,612499893E-2
3,412328765E1	-2,007500082E-2	-2,461249940E-2	3,561250120E-2
3,414345104E1	3,299999982E-3	-5,444999784E-2	3,781250119E-2
3,416361441E1	1,065625027E-1	-5,555000156E-2	4,949999973E-2
3,418377770E1	1,586750001E-1	-5,238749832E-2	1,759999990E-2
3,420394085E1	1,204499975E-1	-3,107500076E-2	-1,966249943E-2
3,422410425E1	8,662499487E-3	4,138749838E-2	-1,003750041E-2
3,424426756E1	-1,828749925E-1	8,923749626E-2	1,869999990E-2
3,426443104E1	-2,477750033E-1	8,497499675E-2	4,413750023E-2
3,428459432E1	-1,520749927E-1	2,007500082E-2	7,397499681E-2
3,430475747E1	-1,691249944E-2	-8,635000139E-2	4,413750023E-2
3,432492091E1	4,592499882E-2	-1,161874980E-1	2,749999985E-3
3,434508432E1	5,128749833E-2	-5,128749833E-2	-2,598750032E-2
3,436524768E1	4,056249931E-2	2,007500082E-2	-2,172499895E-2
3,438541099E1	-4,881250113E-2	2,529999986E-2	-5,156249925E-2
3,440557436E1	-9,666249901E-2	-2,364999987E-2	-1,003750041E-2
3,442573772E1	-5,733750015E-2	-1,150875017E-1	7,397499681E-2
3,444590089E1	-2,639999986E-2	-8,112499863E-2	1,123374999E-1
3,446606428E1	-5,513750017E-2	4,977500066E-2	1,038125008E-1
3,448622765E1	-1,200374961E-1	5,197500065E-2	1,027124971E-1
3,450639095E1	-1,328250021E-1	-3,739999980E-2	9,212499857E-2
3,452655428E1	-1,168750003E-1	-4,166249931E-2	6,861250103E-2
3,454671767E1	-1,116499975E-1	-2,144999988E-2	4,523750022E-2
3,456688086E1	-8,813749999E-2	-5,335000157E-2	3,891250119E-2
3,458704424E1	-9,143749624E-2	-4,702499881E-2	3,987500072E-2
3,460720757E1	-1,211374998E-1	8,387500420E-3	5,499999970E-4
3,462737093E1	-2,158749998E-1	4,771250114E-2	-2,186249942E-2
3,464753430E1	-2,915000021E-1	9,129999578E-2	2,186249942E-2
3,466769768E1	-3,243624866E-1	9,033749998E-2	6,228749827E-2
3,468786083E1	-3,084124923E-1	4,344999790E-2	3,671250120E-2
3,470802423E1	-2,542375028E-1	-2,034999989E-2	-5,059999973E-2
3,472818762E1	-1,062875018E-1	-4,056249931E-2	-8,346249908E-2
3,474835101E1	8,841250092E-2	-8,951249719E-2	-3,671250120E-2
3,476851430E1	1,491875052E-1	-1,992374957E-1	-4,812499974E-3
3,478867768E1	1,427250057E-1	-1,704999954E-1	-2,282499894E-2
3,480884085E1	7,892499864E-2	-8,002500236E-2	-8,772499859E-2
3,482900424E1	2,571249940E-2	2,859999985E-2	-1,155000031E-1
3,484916760E1	-5,623750016E-2	1,828749925E-1	-6,655000150E-2
3,486933093E1	-2,509374917E-1	2,190375030E-1	-7,974999957E-3
3,488949430E1	-4,085125029E-1	1,168750003E-1	8,566249907E-2
3,490965744E1	-3,499374986E-1	9,349999949E-3	1,687124968E-1
3,492982082E1	-2,818749845E-1	2,749999985E-2	1,186624989E-1
3,494998420E1	-1,860374957E-1	-1,086249948E-2	1,223750040E-2
3,497014750E1	-2,117500082E-2	-6,187500060E-2	-2,186249942E-2
3,499031089E1	1,289750040E-1	-1,310375035E-1	3,244999796E-2
3,501047429E1	2,066625059E-1	-2,118874937E-1	1,101374999E-1
3,503063746E1	2,076250017E-1	-2,875125110E-1	1,431374997E-1
3,505080106E1	1,970375031E-1	-3,130874932E-1	1,473999918E-1
3,507096425E1	1,629374921E-1	-2,246749997E-1	9,102500230E-2
3,509112765E1	5,555000156E-2	4,235000163E-2	-1,966249943E-2
3,511129095E1	2,681249939E-2	3,360500038E-1	-8,456250280E-2
3,513145434E1	5,761250108E-2	4,031499922E-1	-8,139999956E-2
3,515161775E1	2,681249939E-2	2,457125038E-1	-6,008749828E-2
3,517178090E1	-3,396249935E-2	9,872499853E-2	-9,844999760E-2
3,519194428E1	-7,218749821E-2	7,961250097E-2	-1,388749927E-1
3,521210758E1	2,777500078E-2	3,602499887E-2	-1,249874979E-1
3,523227097E1	1,534499973E-1	-6,297499686E-2	-9,941250086E-2
3,525243434E1	1,853500009E-1	-1,352999955E-1	-1,101374999E-1
3,527259748E1	1,788875014E-1	-6,833750010E-2	-1,473999918E-1
3,529276086E1	1,608749926E-1	1,359875053E-1	-1,568875015E-1
3,531292423E1	1,002374962E-1	3,265624940E-1	-9,418749809E-2
3,533308763E1	6,407500058E-2	2,978250086E-1	2,076249942E-2
3,535325094E1	4,592499882E-2	1,211374998E-1	1,336500049E-1
3,537341434E1	9,377499670E-2	-7,150000334E-2	2,070749998E-1
3,539357748E1	1,247124970E-1	-2,311374992E-1	2,272875011E-1
3,541374087E1	1,150875017E-1	-2,140875012E-1	1,889249980E-1
3,543390424E1	7,039999962E-2	-3,423750028E-2	1,368124932E-1
3,545406753E1	7,039999962E-2	2,094125003E-1	1,282874942E-1
3,547423100E1	1,076624990E-1	2,179374993E-1	1,718750000E-1
3,549439407E1	7,246249914E-2	1,361249946E-2	1,931875050E-1
3,551455746E1	5,555000156E-2	-2,012999952E-1	1,431374997E-1
3,553472087E1	1,458874941E-1	-1,694000065E-1	7,191249728E-2
3,555488416E1	1,768250018E-1	1,471249945E-2	-7,974999957E-3
3,557504761E1	1,395625025E-1	2,179374993E-1	3,671250120E-2
3,559521069E1	-3,024999984E-3	2,030874938E-1	1,889249980E-1
3,561537408E1	-2,062499970E-1	-2,681249939E-2	2,953499854E-1
3,563553748E1	-3,467749953E-1	-1,779250056E-1	2,996124923E-1
3,565570087E1	-3,478749990E-1	-1,002374962E-1	2,293500006E-1
3,567586427E1	-1,775124967E-1	2,956249937E-2	1,570249945E-1
3,569602755E1	8,951249719E-2	9,129999578E-2	1,186624989E-1
3,571619094E1	1,725624949E-1	7,644999772E-2	6,435000151E-2
3,573635433E1	1,214125007E-1	3,808749840E-2	3,561250120E-2
3,575651749E1	5,761250108E-2	-1,292499993E-2	2,296249941E-2
3,577668085E1	1,139874980E-1	-2,364999987E-2	5,912499968E-3
3,579684417E1	1,725624949E-1	2,859999985E-2	-3,451250121E-2
3,581700757E1	1,310375035E-1	1,072499976E-1	-5,898749828E-2
3,583717076E1	-8,387500420E-3	1,572999954E-1	-1,856249943E-2
3,585733415E1	-1,413500011E-1	1,264999956E-1	3,244999796E-2
3,587749752E1	-2,127124965E-1	8,277499676E-2	2,296249941E-2
3,589766080E1	-1,797125041E-1	1,424500048E-1	-1,966249943E-2
3,591782419E1	-4,564999789E-2	1,435499936E-1	-4,839999974E-2
3,593798756E1	1,299374998E-1	5,307500064E-2	-2,502499893E-2
3,595815072E1	2,374625057E-1	-8,208750188E-2	-7,974999957E-3
3,597831409E1	2,556124926E-1	-1,853500009E-1	-6,874999963E-3
3,599847746E1	1,991000026E-1	-1,555124968E-1	-2,818750031E-2
3,601864073E1	1,449249983E-1	1,044999994E-2	-4,812499974E-3
3,603880387E1	6,819999963E-2	1,179749966E-1	3,038750030E-2
3,605896725E1	-5,733750015E-2	1,105500013E-1	5,802499875E-2
3,607913065E1	-5,623750016E-2	2,956249937E-2	9,102500230E-2
3,609929398E1	-4,881250113E-2	-6,833750010E-2	1,229249984E-1
3,611945737E1	-8,607500046E-2	-6,613750011E-2	1,058750004E-1
3,613962076E1	-1,424500048E-1	6,366249919E-2	8,359999955E-2
3,615978416E1	-1,775124967E-1	2,127124965E-1	7,933750004E-2
3,617994734E1	-1,924999952E-1	2,435124964E-1	4,949999973E-2
3,620011073E1	-9,886249900E-2	1,350249946E-1	1,333750039E-2
3,622027402E1	4,372499883E-2	-3,299999982E-3	4,812499974E-3
3,624043739E1	9,267500043E-2	-3,629999980E-2	2,612499893E-2
3,626060054E1	3,849999979E-2	-4,482499883E-2	4,317500070E-2
3,628076391E1	-3,066249937E-2	-9,487500042E-2	6,008749828E-2
3,630092731E1	-9,033749998E-2	-3,533750027E-2	-1,113750041E-2
3,632109061E1	-1,307625026E-1	1,828749925E-1	-8,566249907E-2
3,634125400E1	-1,786125004E-1	4,127750099E-1	-8,139999956E-2
3,636141739E1	-2,243999988E-1	3,786749840E-1	-2,186249942E-2
3,638158058E1	-1,243000031E-1	1,572999954E-1	4,812499974E-3
3,640174396E1	7,356250286E-2	-1,864500046E-1	-1,512499992E-3
3,642190727E1	2,523125112E-1	-4,002625048E-1	-4,207500070E-2
3,644207065E1	3,162499964E-1	-3,631374836E-1	-1,016125008E-1
3,646223411E1	1,970375031E-1	-7,039999962E-2	-1,463000029E-1
3,648239741E1	1,498750038E-2	2,818749845E-1	-1,207249984E-1
3,650256081E1	-1,233374998E-1	2,796750069E-1	-4,097500071E-2
3,652272397E1	-2,116124928E-1	1,264999956E-1	-6,861250103E-2
3,654288736E1	-2,073500007E-1	9,033749998E-2	-1,792999953E-1
3,656305066E1	-1,467124969E-1	2,212374955E-1	-2,356749922E-1
3,658321403E1	-1,020250022E-1	2,733500004E-1	-1,984124929E-1
3,660337741E1	1,924999990E-2	1,478125006E-1	-9,735000134E-2
3,662354056E1	1,458874941E-1	-1,704999954E-1	-4,523750022E-2
3,664370392E1	1,874125004E-1	-4,184125066E-1	-1,005124971E-1
3,666386723E1	1,586750001E-1	-4,162124991E-1	-1,484999955E-1
3,668403040E1	6,297499686E-2	-1,502874941E-1	-1,718750000E-1
3,670419379E1	2,461249940E-2	2,371875048E-1	-1,303499937E-1
3,672435708E1	7,576250285E-2	2,861374915E-1	-2,928750031E-2
3,674452053E1	6,819999963E-2	-3,533750027E-2	-1,512499992E-3
3,676468385E1	3,629999980E-2	-2,651000023E-1	-9,528750181E-2
3,678484700E1	3,107500076E-2	-6,407500058E-2	-1,772374958E-1
3,680501038E1	4,702499881E-2	2,435124964E-1	-1,420374960E-1
3,682517379E1	5,335000157E-2	3,073124886E-1	-5,802499875E-2
3,684533709E1	8,524999768E-2	1,381874979E-1	-1,333750039E-2
3,686550050E1	2,012999952E-1	-7,576250285E-2	-2,598750032E-2
3,688566368E1	2,778874934E-1	-2,534124851E-1	-5,046249926E-2
3,690582707E1	2,343000025E-1	-1,799875051E-1	-9,528750181E-2
3,692599037E1	8,841250092E-2	8,071249723E-2	-1,292500049E-1
3,694615376E1	-5,307500064E-2	2,147749960E-1	-6,655000150E-2
3,696631691E1	-5,843750015E-2	1,029874980E-1	2,186249942E-2
3,698648029E1	-2,749999985E-2	-6,503749639E-2	7,081250101E-2
3,700664366E1	6,503749639E-2	-5,555000156E-2	8,786249906E-2
3,702680698E1	2,183499932E-1	4,124999978E-3	8,456250280E-2
3,704697034E1	2,437874973E-1	6,187499966E-3	8,030000329E-2
3,706713349E1	2,023999989E-1	2,749999985E-2	1,005124971E-1
3,708729680E1	1,054624990E-1	4,344999790E-2	1,782000065E-1
3,710746027E1	3,519999981E-2	2,956249937E-2	2,452999949E-1
3,712762361E1	-6,792499870E-2	-4,399999976E-3	2,527250051E-1
3,714778708E1	-1,137124971E-1	1,361249946E-2	2,378749996E-1
3,716795018E1	-1,296624988E-1	5,623750016E-2	2,017125040E-1
3,718811356E1	-1,413500011E-1	1,168750003E-1	1,579875052E-1
3,720827687E1	-1,275999993E-1	1,604624987E-1	1,240250021E-1
3,722844025E1	-7,755000144E-2	9,459999949E-2	8,359999955E-2
3,724860361E1	1,924999990E-2	-2,254999988E-2	3,561250120E-2
3,726876701E1	1,002374962E-1	-6,613750011E-2	-1,223750040E-2
3,728893009E1	1,236125007E-1	1,691249944E-2	-7,713750005E-2
3,730909348E1	7,576250285E-2	1,487749964E-1	-8,992499858E-2
3,732925682E1	-2,859999985E-2	1,828749925E-1	-3,987500072E-2
3,734941999E1	-9,459999949E-2	6,902500242E-2	-5,912499968E-3
3,736958337E1	-1,924999952E-1	-4,702499881E-2	-4,207500070E-2
3,738974674E1	-2,648249865E-1	3,286249936E-2	-8,359999955E-2
3,740991003E1	-2,531374991E-1	1,413500011E-1	-1,197625026E-1
3,743007341E1	-1,148125008E-1	6,586249918E-2	-1,346125007E-1
3,745023656E1	-7,287499961E-3	-1,119249985E-1	-1,505624950E-1
3,747039995E1	3,299999982E-3	-1,566125005E-1	-2,059749961E-1
3,749056325E1	2,571249940E-2	-6,077500060E-2	-2,293500006E-1
3,751072663E1	9,803749621E-2	-6,407500058E-2	-2,091374993E-1
3,753088977E1	1,352999955E-1	-9,281250089E-2	-1,920875013E-1
3,755105317E1	1,395625025E-1	-4,056249931E-2	-1,835625023E-1
3,757121656E1	8,524999768E-2	-3,203750029E-2	-1,473999918E-1
3,759137988E1	7,576250285E-2	-1,247124970E-1	-6,971249729E-2
3,761154302E1	7,466249913E-2	-1,555124968E-1	-2,186249942E-2
3,763170640E1	2,571249940E-2	-7,150000334E-2	-6,874999963E-3
3,765186978E1	-2,007500082E-2	2,956249937E-2	4,812499974E-3
3,767203310E1	-8,181250095E-2	8,181250095E-2	9,074999951E-3
3,769219645E1	-1,009249985E-1	2,213750035E-2	5,486249924E-2
3,771235961E1	-1,154999994E-2	-1,108250022E-1	1,038125008E-1
3,773252301E1	8,208750188E-2	-1,608749926E-1	5,802499875E-2
3,775268631E1	5,871250108E-2	6,187499966E-3	2,612499986E-3
3,777284970E1	-1,154999994E-2	2,041874975E-1	4,207500070E-2
3,779301307E1	-1,264999993E-2	1,370874941E-1	1,249874979E-1
3,781317621E1	3,107500076E-2	-8,208750188E-2	1,442375034E-1
3,783333960E1	2,461249940E-2	-7,782500237E-2	7,713750005E-2
3,785350292E1	6,599999964E-3	1,392875016E-1	7,507500052E-2
3,787366632E1	-4,564999789E-2	2,349874973E-1	1,186624989E-1
3,789382948E1	-1,498750001E-1	1,339250058E-1	1,292500049E-1
3,791399288E1	-2,127124965E-1	3,382499889E-2	1,271875054E-1
3,793415619E1	-1,978625059E-1	3,176249936E-2	1,197625026E-1
3,795431934E1	-1,190750003E-1	1,072499976E-1	1,016125008E-1
3,797448298E1	-4,344999790E-2	1,658249944E-1	6,971249729E-2
3,799464613E1	1,374999993E-4	1,435499936E-1	7,287500054E-2
3,801480944E1	4,702499881E-2	-2,364999987E-2	1,090374961E-1
3,803497259E1	3,739999980E-2	-2,098249942E-1	1,260875016E-1
3,805513599E1	2,254999988E-2	-1,683000028E-1	6,971249729E-2
3,807529959E1	5,128749833E-2	7,108750194E-2	1,223750040E-2
3,809546272E1	1,292499993E-2	1,977249980E-1	-1,333750039E-2
3,811562603E1	-1,520749927E-1	1,370874941E-1	-1,113750041E-2
3,813578921E1	-2,414499968E-1	3,808749840E-2	1,966249943E-2
3,815595253E1	-2,722499967E-1	-5,444999784E-2	-7,974999957E-3
3,817611587E1	-2,147749960E-1	-3,533750027E-2	-1,175625026E-1
3,819627926E1	-1,105500013E-1	7,535000145E-2	-2,165624946E-1
3,821644240E1	4,166249931E-2	1,296624988E-1	-2,293500006E-1
3,823660580E1	8,841250092E-2	3,382499889E-2	-2,558875084E-1
3,825676915E1	7,246249914E-2	-3,959999979E-2	-2,516250014E-1
3,827693254E1	1,139874980E-1	-8,635000139E-2	-2,037750036E-1
3,829709570E1	7,576250285E-2	-6,613750011E-2	-2,111999989E-1
3,831725901E1	-6,187499966E-3	4,881250113E-2	-2,388374954E-1
3,833742238E1	-1,062875018E-1	1,435499936E-1	-1,952500045E-1
3,835758574E1	-2,041874975E-1	8,703749627E-2	-7,177499682E-2
3,837774891E1	-3,106124997E-1	-5,444999784E-2	-2,076249942E-2
3,839791229E1	-3,521375060E-1	-6,503749639E-2	-4,729999974E-2
3,841807562E1	-2,158749998E-1	8,387500048E-2	-7,603749633E-2
3,843823898E1	-1,044999994E-2	1,275999993E-1	-9,735000134E-2
3,845840212E1	3,849999979E-2	2,323750034E-2	-1,249874979E-1
3,847856552E1	-7,864999771E-2	-7,259999961E-2	-1,143999994E-1
3,849872891E1	-1,222374961E-1	-8,855000138E-2	-5,692499876E-2
3,851889220E1	-9,556250274E-2	-1,247124970E-1	-5,898749828E-2
3,853905537E1	-7,864999771E-2	-1,714625061E-1	-1,463000029E-1
3,855921865E1	-2,007500082E-2	-1,033999994E-1	-2,111999989E-1
3,857938206E1	4,276249930E-2	5,087499972E-3	-2,634499967E-1
3,859954519E1	6,819999963E-2	-2,254999988E-2	-2,963125110E-1
3,861970860E1	2,034999989E-2	-1,502874941E-1	-2,697750032E-1
3,863987190E1	-5,307500064E-2	-1,597750038E-1	-2,527250051E-1
3,866003527E1	-7,864999771E-2	-4,386249930E-2	-2,675749958E-1
3,868019844E1	-6,187499966E-3	-4,399999976E-3	-2,558875084E-1
3,870036181E1	8,744999766E-2	-9,061250091E-2	-2,612499893E-1
3,872052512E1	1,299374998E-1	-1,427250057E-1	-2,953499854E-1
3,874068858E1	9,597499669E-2	-4,812499881E-2	-2,644124925E-1
3,876085171E1	4,372499883E-2	6,256250292E-2	-1,815000027E-1
3,878101501E1	1,828750037E-2	1,361249946E-2	-1,038125008E-1
3,880117839E1	7,466249913E-2	-1,651374996E-1	-4,413750023E-2
3,882134153E1	1,225124970E-1	-1,577125043E-1	-6,435000151E-2
3,884150493E1	1,108250022E-1	4,881250113E-2	-8,676250279E-2
3,886166832E1	5,444999784E-2	1,478125006E-1	-2,928750031E-2
3,888183162E1	4,908749834E-2	1,264999993E-2	7,081250101E-2
3,890199504E1	5,335000157E-2	-1,619749963E-1	9,102500230E-2
3,892215843E1	5,555000156E-2	-1,544124931E-1	3,038750030E-2
3,894232157E1	1,023000032E-1	-2,144999988E-2	3,712499980E-3
3,896248486E1	1,577125043E-1	2,117500082E-2	-1,649999991E-3
3,898264822E1	1,033999994E-1	-2,034999989E-2	-2,612499893E-2
3,900281138E1	4,702499881E-2	-1,086249948E-2	-2,612499986E-3
3,902297476E1	8,951249719E-2	3,602499887E-2	4,207500070E-2
3,904313806E1	1,247124970E-1	8,387500420E-3	1,223750040E-2
3,906330123E1	1,065625027E-1	-1,608750038E-2	4,812499974E-3
3,908346460E1	8,208750188E-2	7,287499961E-3	5,912499875E-2
3,910362797E1	3,519999981E-2	-6,503749639E-2	1,027124971E-1
3,912379129E1	-5,087500066E-2	-1,375000030E-1	9,955000132E-2
3,914395443E1	-1,148125008E-1	-1,332374960E-1	7,933750004E-2
3,916411773E1	-1,020250022E-1	-3,739999980E-2	6,118749827E-2
3,918428087E1	-5,513750017E-2	8,387500420E-3	3,244999796E-2
3,920444426E1	5,871250108E-2	-6,723749638E-2	-3,712499980E-3
3,922460758E1	2,044624984E-1	-1,842499971E-1	-3,987500072E-2
3,924477095E1	2,150499970E-1	-2,012999952E-1	-6,435000151E-2
3,926493413E1	1,278750002E-1	-1,161874980E-1	-5,059999973E-2
3,928509752E1	6,613750011E-2	-1,237499993E-3	-3,355000168E-2
3,930526083E1	3,739999980E-2	-1,292499993E-2	-4,839999974E-2
3,932542422E1	-1,374999993E-2	9,624999948E-4	-3,561250120E-2
3,934558736E1	6,462499965E-3	1,233374998E-1	2,392499894E-2
3,936575077E1	-4,028749838E-2	1,924999990E-3	1,143999994E-1
3,938591405E1	-8,181250095E-2	-2,183499932E-1	1,505624950E-1
3,940607722E1	-5,513750017E-2	-1,896124929E-1	8,456250280E-2
3,942624058E1	3,739999980E-2	6,256250292E-2	1,966249943E-2
3,944640385E1	1,023000032E-1	2,094125003E-1	-5,912499968E-3
3,946656698E1	4,276249930E-2	7,535000145E-2	2,928750031E-2
3,948673035E1	-6,586249918E-2	-5,555000156E-2	1,175625026E-1
3,950689366E1	-7,108750194E-2	-7,892499864E-2	1,687124968E-1
3,952705685E1	1,718750037E-2	-1,512500048E-1	1,410750002E-1
3,954722023E1	9,913749993E-2	-1,544124931E-1	6,118749827E-2
3,956738355E1	1,458874941E-1	-7,562499959E-3	-1,333750039E-2
3,958754692E1	1,363999993E-1	1,264999956E-1	-3,987500072E-2
3,960771009E1	6,393750012E-2	4,344999790E-2	-7,974999957E-3
3,962787339E1	1,237499993E-3	-1,193500012E-1	-6,874999963E-3
3,964803687E1	-1,801249944E-2	-9,377499670E-2	-3,244999796E-2
3,966819996E1	1,498750038E-2	2,213750035E-2	-6,228749827E-2
3,968836330E1	-5,417500064E-2	9,666249901E-2	-1,027124971E-1
3,970852670E1	-1,190750003E-1	1,732500046E-1	-1,047749966E-1
3,972868982E1	-1,478125006E-1	1,680250019E-1	-3,987500072E-2
3,974885342E1	-8,497499675E-2	-4,399999976E-3	5,156249925E-2
3,976901651E1	-2,323750034E-2	-1,097249985E-1	2,612499893E-2
3,978917990E1	2,571249940E-2	5,087500066E-2	-5,499999970E-4
3,980934309E1	1,065625027E-1	1,541374922E-1	5,692499876E-2
3,982950639E1	1,097249985E-1	3,382499889E-2	8,249999583E-2
3,984966977E1	6,723749638E-2	-5,981250107E-2	5,486249924E-2
3,986983290E1	8,098749816E-2	3,918749839E-2	4,523750022E-2
3,988999620E1	1,363999993E-1	1,233374998E-1	7,603749633E-2
3,991015937E1	1,182499975E-1	7,287499961E-3	8,882500231E-2
3,993032276E1	2,681249939E-2	-3,533750027E-2	6,008749828E-2
3,995048611E1	-8,607500046E-2	8,497499675E-2	3,355000168E-2
3,997064919E1	-1,817750037E-1	2,127124965E-1	5,156249925E-2
3,999081255E1	-2,477750033E-1	1,903000027E-1	8,676250279E-2
4,001097589E1	-2,349874973E-1	8,813749999E-2	9,198749810E-2
4,003113904E1	-1,116499975E-1	-7,356250286E-2	4,729999974E-2
4,005130243E1	6,723749638E-2	-1,097249985E-1	-3,355000168E-2
