"Time (s)"	"Acceleration x (m/s^2)"	"Acceleration y (m/s^2)"	"Acceleration z (m/s^2)"
5,499852100E-2	-1,006049991E0	4,522950172E0	9,523950577E0
7,516088600E-2	-7,690500617E-1	4,318950176E0	9,510000229E0
9,532305800E-2	-6,030000448E-1	4,312050343E0	8,667000771E0
1,154852370E-1	-5,320500135E-1	4,306950092E0	8,338950157E0
1,356474680E-1	-8,170500398E-1	4,249950409E0	8,605050087E0
1,558096320E-1	-6,030000448E-1	3,880950212E0	9,250950813E0
1,759720010E-1	-1,006049991E0	4,192049980E0	9,826050758E0
1,961341540E-1	-1,573050022E0	4,711950302E0	9,193950653E0
2,162963910E-1	-1,092000008E0	4,813050270E0	7,957950592E0
2,364585540E-1	-6,199500561E-1	4,743000031E0	6,921000481E0
2,566207180E-1	-9,460500479E-1	5,052000046E0	7,249050140E0
2,767828860E-1	-1,621050119E0	5,325000286E0	8,690999985E0
2,969453270E-1	-2,011049986E0	5,421000481E0	9,664950371E0
3,171074150E-1	-1,884000063E0	5,353950024E0	1,010100079E1
3,372696410E-1	-1,212000012E0	5,209950447E0	9,687000275E0
3,574317850E-1	-1,084950089E0	5,397000313E0	9,409049988E0
3,775941820E-1	-1,113000035E0	5,517000198E0	9,433050156E0
3,977563530E-1	-1,197000027E0	5,457000256E0	9,475950241E0
4,179184970E-1	-1,345950007E0	5,566950321E0	9,595950127E0
4,380807280E-1	-1,570950031E0	5,809050083E0	9,463950157E0
4,582428720E-1	-1,519950032E0	5,791950226E0	8,872950554E0
4,784052690E-1	-1,396050096E0	5,823000431E0	7,848000526E0
4,985674180E-1	-1,468050122E0	6,067050457E0	7,575000286E0
5,187295770E-1	-1,165950060E0	5,878050327E0	7,822050571E0
5,388917900E-1	-7,300500274E-1	5,428050041E0	8,284049988E0
5,590539350E-1	-7,039500475E-1	5,148000240E0	8,434950829E0
5,792161030E-1	-9,360000491E-1	5,227050304E0	8,513999939E0
5,993784920E-1	-1,168950081E0	5,290950298E0	8,133000374E0
6,195406490E-1	-1,444050074E0	5,514000416E0	7,462950230E0
6,397027980E-1	-1,434000015E0	5,569050312E0	6,802050114E0
6,598650400E-1	-1,410000086E0	5,665050507E0	6,751050472E0
6,800274280E-1	-1,377000093E0	5,749050140E0	7,036050320E0
7,001896580E-1	-1,282950044E0	5,866050243E0	7,410000324E0
7,203517780E-1	-9,030000567E-1	5,812950134E0	7,362000465E0
7,405139440E-1	-7,420500517E-1	5,665050507E0	7,455000401E0
7,606763220E-1	-7,620000243E-1	5,551950455E0	7,704000473E0
7,808382420E-1	-1,003050089E0	5,557050228E0	8,185950279E0
8,010006350E-1	-1,260000110E0	5,593050480E0	8,197950363E0
8,211627920E-1	-1,389000058E0	5,611950397E0	8,250000000E0
8,413250180E-1	-1,366950035E0	5,682000160E0	8,204999924E0
8,614871740E-1	-1,537050128E0	5,998050213E0	8,323950768E0
8,816493230E-1	-1,554000020E0	6,328050137E0	8,044050217E0
9,018116810E-1	-1,384050012E0	6,538950443E0	7,245000362E0
9,219739050E-1	-1,470000029E0	6,751950264E0	6,900000095E0
9,421360580E-1	-1,374000072E0	6,964950562E0	6,909000397E0
9,622984280E-1	-1,417950034E0	6,972000122E0	7,182000160E0
9,824605840E-1	-1,365000010E0	6,751950264E0	7,800000191E0
1,002622726E0	-1,273950100E0	6,319050312E0	8,427000046E0
1,022784948E0	-1,324050069E0	6,235050201E0	8,824950218E0
1,042947109E0	-1,171050072E0	6,357000351E0	8,173950195E0
1,063109481E0	-8,980500698E-1	6,453000069E0	7,105950356E0
1,083271406E0	-8,620500565E-1	6,697050095E0	6,352050304E0
1,103433779E0	-1,111050010E0	6,843000412E0	6,475950241E0
1,123596001E0	-1,353000045E0	6,607950211E0	7,105950356E0
1,143758141E0	-1,321950078E0	6,139050484E0	7,498050213E0
1,163920523E0	-1,321950078E0	5,683950424E0	8,085000038E0
1,184082696E0	-1,101000071E0	5,404050350E0	8,395950317E0
1,204244932E0	-6,870000362E-1	5,260050297E0	7,783050537E0
1,224407033E0	-3,450000286E-1	5,290950298E0	6,793950558E0
1,244569274E0	-5,170500278E-1	5,619000435E0	6,301050186E0
1,264731659E0	-9,049500227E-1	6,036000252E0	6,100050449E0
1,284893826E0	-5,170500278E-1	6,022050381E0	5,547000408E0
1,305056076E0	-2,595000155E-2	5,968950272E0	5,475000381E0
1,325218230E0	2,505000122E-2	6,052950382E0	5,782050133E0
1,345380372E0	-1,890000105E-1	6,058050156E0	6,628950119E0
1,365542526E0	-7,620000243E-1	6,141000271E0	7,708950520E0
1,385704896E0	-1,267050028E0	5,916000366E0	9,055050850E0
1,405867053E0	-1,312050104E0	5,494950294E0	9,766050339E0
1,426029215E0	-1,497000098E0	5,245950222E0	9,984000206E0
1,446191458E0	-1,528050065E0	5,136000156E0	9,210000038E0
1,466353612E0	-1,261950016E0	4,915950298E0	7,993950367E0
1,486515997E0	-9,390000701E-1	4,860000134E0	7,012050152E0
1,506678139E0	-9,940500259E-1	4,959000111E0	6,478050232E0
1,526840377E0	-8,959500194E-1	5,244000435E0	6,160050392E0
1,547002516E0	-9,100500345E-1	5,860950470E0	5,961000443E0
1,567164891E0	-1,306950092E0	6,505050182E0	6,814050198E0
1,587327115E0	-1,516050100E0	6,927000523E0	8,092050552E0
1,607489262E0	-1,401000023E0	6,987000465E0	9,055050850E0
1,627651387E0	-1,189950109E0	7,092000484E0	9,273000717E0
1,647813773E0	-1,164000034E0	7,192950249E0	8,680950165E0
1,667975937E0	-1,635000110E0	7,224000454E0	9,094950676E0
1,688138154E0	-2,080950022E0	7,164000511E0	9,526050568E0
1,708300336E0	-2,109000206E0	6,919950485E0	8,791049957E0
1,728462483E0	-1,780950069E0	6,607950211E0	7,491000175E0
1,748624885E0	-1,647000074E0	6,505050182E0	6,574050426E0
1,768786795E0	-1,770000100E0	6,289950371E0	6,451950073E0
1,788949187E0	-1,690050125E0	5,854050159E0	7,273050308E0
1,809111338E0	-1,129950047E0	5,358000278E0	7,450950146E0
1,829273567E0	-9,630000591E-1	5,266950130E0	6,897000313E0
1,849435723E0	-1,489050031E0	5,485050201E0	7,285050392E0
1,869598113E0	-1,753050089E0	5,584050179E0	7,768950462E0
1,889760254E0	-1,626000047E0	5,647950172E0	7,276050568E0
1,909922415E0	-1,657050133E0	5,955000401E0	6,438000202E0
1,930084650E0	-1,750050068E0	6,211050510E0	5,727000237E0
1,950246828E0	-1,927950144E0	6,448050499E0	6,391950130E0
1,970409223E0	-2,014050007E0	6,478950500E0	7,659000397E0
1,990571377E0	-2,053950071E0	6,661050320E0	7,965000153E0
2,010733531E0	-2,658000231E0	6,891000271E0	8,712000847E0
2,030895751E0	-3,148950100E0	6,895950317E0	9,469050407E0
2,051058158E0	-2,434950113E0	6,709050179E0	7,879050255E0
2,071220297E0	-2,320050001E0	6,832950115E0	5,683950424E0
2,091382456E0	-2,569050074E0	6,778050423E0	5,311950207E0
2,111544680E0	-2,368050098E0	6,850050449E0	5,185950279E0
2,131706848E0	-2,275050163E0	6,769050121E0	4,221000195E0
2,151869010E0	-1,995000124E0	6,577050209E0	3,462000132E0
2,172031475E0	-2,296050072E0	6,192000389E0	5,028000355E0
2,192193615E0	-3,015000105E0	5,799000263E0	7,390950203E0
2,212355795E0	-3,751950264E0	5,667000294E0	9,684000015E0
2,232517949E0	-3,055050135E0	4,948950291E0	1,063305092E1
2,252680340E0	-1,810050130E0	4,381950378E0	9,517050743E0
2,272842472E0	-1,123050094E0	4,171050072E0	8,037000656E0
2,293004692E0	-9,199500680E-1	4,261950016E0	7,639950275E0
2,313166838E0	-6,610500216E-1	4,489050388E0	6,949950218E0
2,333329002E0	-8,190000653E-1	4,992000103E0	5,631000042E0
2,353491369E0	-2,062050104E0	5,347050190E0	5,830050468E0
2,373653595E0	-3,292050123E0	5,092950344E0	8,086950302E0
2,393815742E0	-2,827950239E0	4,129950047E0	8,284049988E0
2,413977910E0	-1,746000051E0	3,691950083E0	5,839050293E0
2,434140069E0	-5,770500302E-1	4,561050415E0	3,658050060E0
2,454302442E0	-7,905000448E-2	6,604050159E0	4,351950169E0
2,474464612E0	-1,024950027E0	8,791950226E0	6,925950527E0
2,494626847E0	-1,543950081E0	9,097949982E0	9,346950531E0
2,514788987E0	-2,290950060E0	8,842050552E0	1,349400043E1
2,534951350E0	-2,188950062E0	8,551950455E0	1,638405037E1
2,555113516E0	1,323000073E0	8,749050140E0	1,095300007E1
2,575275742E0	2,182049990E0	8,835000038E0	4,185000420E0
2,595437896E0	-1,224000096E0	9,331050873E0	5,314950466E0
2,615600039E0	-4,612050056E0	8,931000710E0	1,131495094E1
2,635762444E0	-3,868950129E0	7,669050217E0	1,069995022E1
2,655924600E0	-1,995000124E0	6,532050133E0	8,041950226E0
2,676086764E0	-1,279050112E0	6,228000164E0	6,165000439E0
2,696249017E0	-1,008000016E0	6,864000320E0	4,663950443E0
2,716411157E0	-8,260500431E-1	7,494000435E0	2,193000078E0
2,736573526E0	-1,960950136E0	7,767000198E0	1,921950102E0
2,756735750E0	-4,372050285E0	6,984000206E0	7,510050297E0
2,776897921E0	-4,456050396E0	5,731950283E0	1,273005104E1
2,797060296E0	-1,519950032E0	4,975050449E0	1,029000092E1
2,817222448E0	6,720000505E-1	4,876950264E0	4,992000103E0
2,837384589E0	1,129050016E0	5,502000332E0	2,808000088E0
2,857546820E0	-5,010000467E-1	6,208050251E0	6,067050457E0
2,877708988E0	-1,623000026E0	6,406950474E0	8,855999947E0
2,897871142E0	-1,432050109E0	6,295050144E0	8,241000175E0
2,918033534E0	-1,183050036E0	6,526950359E0	6,616950512E0
2,938195671E0	-8,550000191E-1	6,478950500E0	6,301050186E0
2,958357901E0	-1,045950055E0	6,280050278E0	7,632000446E0
2,978520041E0	-9,220500588E-1	5,932950497E0	8,571000099E0
2,998682209E0	-4,860000312E-1	5,767950058E0	8,089950562E0
3,018844594E0	1,469999999E-1	6,079050064E0	6,126000404E0
3,039006813E0	4,630500078E-1	6,184950352E0	5,430000305E0
3,059168974E0	-4,605000094E-2	5,821050167E0	6,988050461E0
3,079331108E0	-4,860000312E-1	5,301000118E0	8,905950546E0
3,099493498E0	-1,141950011E0	5,160000324E0	9,871050835E0
3,119655645E0	-2,698050022E0	6,004950523E0	7,611000538E0
3,139817890E0	-4,008000374E0	7,104000568E0	5,746050358E0
3,159980046E0	-3,229950190E0	7,123050213E0	5,178000450E0
3,180142433E0	-1,887000084E0	6,156000137E0	5,617050171E0
3,200304659E0	-8,119500279E-1	5,800950050E0	5,740950108E0
3,220466722E0	4,540500343E-1	6,040950298E0	5,073000431E0
3,240628955E0	1,194000006E0	6,280050278E0	4,479000092E0
3,260791118E0	1,378050089E0	6,388050079E0	5,475000381E0
3,280953496E0	-1,200000048E-1	6,610950470E0	9,064050674E0
3,301115757E0	-2,350950003E0	6,442950249E0	1,279005051E1
3,321277877E0	-3,843000174E0	6,037950516E0	1,395105076E1
3,341440016E0	-3,733050108E0	5,916000366E0	1,146600056E1
3,361602399E0	-2,418000221E0	5,659950256E0	7,624950409E0
3,381764553E0	-5,149500370E-1	4,906050205E0	4,690050125E0
3,401926784E0	6,760500073E-1	4,267050266E0	4,398000240E0
3,422089173E0	1,135950089E0	4,425000191E0	5,238000393E0
3,442251088E0	1,249050021E0	5,131050110E0	4,789950371E0
3,462413466E0	1,039950013E0	5,943000317E0	4,800000191E0
3,482575622E0	-4,095000029E-2	6,967050552E0	6,625050545E0
3,502737842E0	-1,087050080E0	7,603950500E0	7,756950378E0
3,522900235E0	-2,301000118E0	7,171050549E0	9,969000816E0
3,543062389E0	-2,955000162E0	6,334950447E0	1,328100109E1
3,563224529E0	-1,303050041E0	5,514000416E0	1,328505039E1
3,583386755E0	9,589500427E-1	5,521050453E0	8,583000183E0
3,603548916E0	1,819050074E0	6,436050415E0	5,415000439E0
3,623711285E0	4,440000355E-1	7,719000340E0	6,210000515E0
3,643873519E0	-1,758000135E0	8,323050499E0	8,860950470E0
3,664035688E0	-3,208050251E0	7,980000496E0	1,039305019E1
3,684198087E0	-3,886050224E0	7,200000286E0	1,224195099E1
3,704360255E0	-2,823000193E0	6,642000198E0	1,121400070E1
3,724522491E0	-1,048950076E0	5,902050495E0	7,927050591E0
3,744684660E0	6,105000153E-2	5,179050446E0	6,318000317E0
3,764847072E0	2,260500044E-1	5,056950092E0	6,471000195E0
3,785009217E0	-4,189500213E-1	5,224050045E0	6,154950142E0
3,805171399E0	-1,003050089E0	5,370000362E0	5,845950127E0
3,825333557E0	-2,007000208E0	5,599950314E0	6,852000237E0
3,845495769E0	-2,629050016E0	5,671950340E0	8,391000748E0
3,865657925E0	-2,341950178E0	5,215050220E0	9,210000038E0
3,885820321E0	-1,444050074E0	4,884000301E0	8,427000046E0
3,905982471E0	-6,370500326E-1	4,954050064E0	6,841950417E0
3,926144688E0	-2,080500126E-1	5,152950287E0	5,758050442E0
3,946306846E0	-6,730500460E-1	5,671950340E0	6,129000187E0
3,966469022E0	-1,537050128E0	6,036000252E0	7,053000450E0
3,986631409E0	-1,948950052E0	6,273000240E0	7,695000172E0
4,006793626E0	-2,224050045E0	6,331050396E0	8,200050354E0
4,026955996E0	-2,308050156E0	6,259050369E0	8,490000725E0
4,047118150E0	-2,007000208E0	5,892000198E0	8,293050766E0
4,067280352E0	-1,966050148E0	5,607000351E0	8,359950066E0
4,087442491E0	-1,741050124E0	5,287050247E0	7,666050434E0
4,107604661E0	-1,432050109E0	5,184000015E0	6,172050476E0
4,127767015E0	-1,315050006E0	5,311050415E0	5,746050358E0
4,147929184E0	-1,566000104E0	5,422950268E0	6,651000500E0
4,168091434E0	-1,630950093E0	5,193000317E0	7,936950207E0
4,188253525E0	-1,354950070E0	4,771950245E0	9,364050865E0
4,208415981E0	-9,990000725E-1	4,599000454E0	1,054905033E1
4,228577901E0	-6,109500527E-1	4,461000443E0	1,033605003E1
4,248740299E0	-1,530000120E-1	3,979050159E0	9,790050507E0
4,268902438E0	-2,989500165E-1	3,886050224E0	9,366000175E0
4,289064646E0	-6,109500527E-1	4,213950157E0	8,451000214E0
4,309226781E0	3,495000303E-2	4,410000324E0	6,522000313E0
4,329389163E0	2,310000062E-1	5,095050335E0	4,846050262E0
4,349551389E0	5,350500345E-1	5,557050228E0	4,363950253E0
4,369713545E0	6,430500150E-1	6,096000195E0	5,134950161E0
4,389875942E0	2,410500050E-1	6,847950459E0	5,716950417E0
4,410038096E0	-7,780500650E-1	7,707000256E0	7,357050419E0
4,430200236E0	-2,119050026E0	7,173000336E0	1,157100010E1
4,450362482E0	-2,293950081E0	6,091050148E0	1,485795116E1
4,470524636E0	-1,839000106E0	5,385000229E0	1,449000072E1
4,490687000E0	-1,843950033E0	5,137950420E0	1,255800056E1
4,510849156E0	-1,615950108E0	4,357950211E0	1,110705090E1
4,531011392E0	-1,237950087E0	3,658950090E0	9,414000511E0
4,551173537E0	-8,550000191E-1	3,301950216E0	7,149000168E0
4,571335675E0	-4,069500268E-1	3,711000204E0	4,291950226E0
4,591498039E0	9,495000541E-2	4,473000050E0	2,011049986E0
4,611660277E0	3,409500122E-1	5,308050156E0	1,144050002E0
4,631822450E0	2,620500028E-1	5,800950050E0	2,371950150E0
4,651984846E0	-3,660000265E-1	5,500050068E0	6,772950172E0
4,672147077E0	-7,420500517E-1	4,891950130E0	1,120995045E1
4,692309233E0	-6,390000582E-1	4,449000359E0	1,330200100E1
4,712471612E0	-7,470000386E-1	4,864950180E0	1,276305103E1
4,732633767E0	-9,049500227E-1	5,191050053E0	1,186605072E1
4,752796008E0	-9,910500646E-1	4,549050331E0	1,179900074E1
4,772958161E0	-9,049500227E-1	3,820950270E0	1,120005035E1
4,793120534E0	-6,109500527E-1	3,745050192E0	8,772000313E0
4,813282703E0	4,350000322E-1	3,948000193E0	6,069000244E0
4,833444934E0	8,730000257E-1	4,513050079E0	4,680000305E0
4,853607089E0	6,960000396E-1	4,894050121E0	5,398950100E0
4,873769473E0	-4,650000334E-1	5,125950336E0	7,864950180E0
4,893931666E0	-6,730500460E-1	4,972950459E0	8,723999977E0
4,914093897E0	-7,380000353E-1	5,524050236E0	8,217000008E0
4,934256041E0	-7,810500264E-1	6,277950287E0	8,005949974E0
4,954418419E0	-5,820000172E-1	6,228000164E0	1,047495079E1
4,974580566E0	-3,829500079E-1	5,160000324E0	1,473600101E1
4,994743024E0	-4,930500090E-1	4,801050186E0	1,545195103E1
5,014904949E0	-1,567950130E0	5,296050072E0	1,283295059E1
5,035067334E0	-2,500050068E0	5,349000454E0	1,048905087E1
5,055229488E0	-2,890050173E0	4,674000263E0	8,611950874E0
5,075391729E0	-2,695950031E0	4,345950127E0	6,696000099E0
5,095554097E0	-1,759950042E0	4,492050171E0	4,993950367E0
5,115716255E0	-1,006049991E0	4,936950207E0	3,471000195E0
5,135878409E0	1,095000096E-2	5,533050060E0	9,640500546E-1
5,156040642E0	1,123950005E0	5,866050243E0	1,182000041E0
5,176202786E0	1,126950026E0	5,044950008E0	6,969000340E0
5,196365179E0	1,167000055E0	3,064950228E0	1,262700081E1
5,216527418E0	2,428950071E0	1,896000147E0	1,336200047E1
5,236689569E0	1,597950101E0	2,326950073E0	1,188000011E1
5,256851961E0	3,580500185E-1	3,448050261E0	1,090995026E1
5,277014112E0	5,595000088E-2	4,101000309E0	9,523950577E0
5,297176334E0	1,260000020E-1	5,050050259E0	6,979050159E0
5,317338487E0	1,930500120E-1	6,364050388E0	4,591950417E0
5,337500636E0	2,980500162E-1	6,726000309E0	4,120050430E0
5,357663019E0	6,105000153E-2	5,938050270E0	8,644950867E0
5,377825257E0	1,086000085E0	4,999050140E0	1,139205074E1
5,397987348E0	2,247000217E0	6,193950176E0	8,113950729E0
5,418149598E0	1,399500072E-1	8,124000549E0	7,312050343E0
5,438311980E0	-2,143050194E0	8,145000458E0	1,059405041E1
5,458474151E0	-3,072000027E0	6,241950512E0	1,422600079E1
5,478636366E0	-2,806050062E0	4,090050220E0	1,647705078E1
5,498798527E0	-1,069950104E0	2,779950142E0	1,399395084E1
5,518960926E0	-1,042050004E0	3,052950144E0	8,748000145E0
5,539123072E0	-6,010500193E-1	2,935050249E0	4,768950462E0
5,559285310E0	1,800000109E-2	2,908950090E0	2,557050228E0
5,579447464E0	2,220000178E-1	3,271050215E0	2,242950201E0
5,599609632E0	-2,230500132E-1	3,964950085E0	3,406950235E0
5,619772011E0	-2,419500053E-1	4,882050037E0	4,719000340E0
5,639934252E0	-1,319999993E-1	5,914050102E0	4,957950115E0
5,660096392E0	-3,600000218E-2	7,068000317E0	5,335950375E0
5,680258779E0	2,599500120E-1	7,453050137E0	6,166950226E0
5,700421030E0	3,510000110E-1	6,474000454E0	9,421050072E0
5,720583164E0	-1,030050039E0	4,735949993E0	1,645095062E1
5,740745315E0	-9,630000591E-1	4,105950356E0	1,833495140E1
5,760907478E0	2,295000106E-2	4,075050354E0	1,299300098E1
5,781069846E0	2,890500128E-1	4,930050373E0	7,269000530E0
5,801232075E0	2,505000122E-2	5,952000141E0	4,735050201E0
5,821394214E0	-5,200500488E-1	6,951000214E0	3,499950171E0
5,841556607E0	-1,378950119E0	7,438950539E0	3,937950134E0
5,861718760E0	-2,713050127E0	6,987000465E0	7,639950275E0
5,881880996E0	-3,382950068E0	5,911950111E0	1,211505032E1
5,902043123E0	-2,722050190E0	5,265000343E0	1,329000092E1
5,922205506E0	-2,121000051E0	5,149950027E0	1,145100021E1
5,942367636E0	-1,426950097E0	5,038050175E0	8,688000679E0
5,962529804E0	-1,405950069E0	4,185000420E0	8,605050087E0
5,982691960E0	-1,522950053E0	3,286950111E0	9,118950844E0
6,002854156E0	-1,336050034E0	3,007050037E0	7,506000519E0
6,023016315E0	-6,229500175E-1	3,265950203E0	4,591950417E0
6,043178714E0	2,929500043E-1	3,874050140E0	2,164050102E0
6,063340868E0	1,201050043E0	4,755000114E0	8,899500370E-1
6,083503073E0	1,593000054E0	5,530950069E0	1,905000091E0
6,103665472E0	6,289500594E-1	6,213000298E0	5,020050049E0
6,123827630E0	-1,294950008E0	6,319050312E0	1,001505089E1
6,143989866E0	-2,554950237E0	6,007050514E0	1,444200039E1
6,164152015E0	-2,763000250E0	5,521050453E0	1,543305111E1
6,184314160E0	-3,012000084E0	5,374950409E0	1,539195061E1
6,204476544E0	-2,380050182E0	5,062050343E0	1,270095062E1
6,224638712E0	-1,147050023E0	4,642950058E0	8,371950150E0
6,244800943E0	-7,879500389E-1	4,767000198E0	5,940000057E0
6,264963328E0	-1,069950104E0	5,599950314E0	4,618050098E0
6,285125467E0	-1,261950016E0	6,594000340E0	3,349050045E0
6,305287698E0	-1,498950124E0	7,333950520E0	2,217000008E0
6,325449799E0	-2,971050024E0	7,795950413E0	3,840000153E0
6,345612034E0	-3,843000174E0	7,348050117E0	7,767000198E0
6,365774171E0	-4,236000061E0	6,474000454E0	1,088595009E1
6,385936543E0	-3,376050234E0	5,743950367E0	1,069005013E1
6,406098702E0	-3,217950106E0	5,967000484E0	8,482049942E0
6,426260870E0	-3,304050207E0	6,406950474E0	7,087050438E0
6,446423117E0	-3,361950159E0	6,457050323E0	6,658050537E0
6,466585505E0	-3,103050232E0	5,914050102E0	7,099050522E0
6,486747668E0	-2,574000120E0	5,497050285E0	7,315950394E0
6,506909901E0	-2,052000046E0	5,380050182E0	6,900000095E0
6,527072289E0	-1,711950064E0	5,397000313E0	6,622050285E0
6,547234442E0	-1,245000005E0	5,389950275E0	6,285000324E0
6,567396663E0	-8,500500321E-1	5,418000221E0	6,052050114E0
6,587558834E0	-1,011000037E0	5,706000328E0	6,153000355E0
6,607721231E0	-1,537050128E0	6,082050323E0	6,567000389E0
6,627883385E0	-2,080950022E0	6,261000156E0	7,264050484E0
6,648045611E0	-2,398950100E0	6,249000072E0	7,903050423E0
6,668207687E0	-2,263050079E0	6,007050514E0	7,888950348E0
6,688369848E0	-1,839000106E0	5,731950283E0	7,783050537E0
6,708532313E0	-1,456050038E0	5,538000107E0	8,029950142E0
6,728694247E0	-1,237950087E0	5,413950443E0	8,278950691E0
6,748856693E0	-1,639950037E0	5,524050236E0	8,515950203E0
6,769018828E0	-2,133000135E0	5,485050201E0	9,055050850E0
6,789180978E0	-2,256000042E0	5,239050388E0	9,414000511E0
6,809343117E0	-1,516050100E0	4,879950047E0	8,202000618E0
6,829505492E0	-6,820500493E-1	4,705049992E0	6,991050243E0
6,849667649E0	-3,640500307E-1	4,827000141E0	6,237000465E0
6,869829877E0	-2,920500040E-1	5,032950401E0	6,234000206E0
6,889992041E0	-3,810000122E-1	5,287050247E0	6,378000259E0
6,910154423E0	-6,850500107E-1	5,892000198E0	6,270000458E0
6,930316562E0	-9,840000272E-1	6,450000286E0	6,292050362E0
6,950478805E0	-1,494000077E0	6,643950462E0	6,856950283E0
6,970640973E0	-1,779000044E0	6,462000370E0	8,116050720E0
6,990803339E0	-1,980000138E0	5,932950497E0	9,634050369E0
7,010965497E0	-2,107050180E0	5,449050426E0	1,108305073E1
7,031127654E0	-1,996950150E0	4,903950214E0	1,175295067E1
7,051289815E0	-2,071050167E0	4,381950378E0	1,220295048E1
7,071452041E0	-1,711950064E0	4,393949986E0	1,070400047E1
7,091614431E0	-1,224000096E0	4,831950188E0	7,929000378E0
7,111776568E0	-1,057950020E0	5,089950085E0	5,212050438E0
7,131938815E0	-2,095050097E0	5,148000240E0	5,956050396E0
7,152100983E0	-2,928000212E0	4,918050289E0	8,482049942E0
7,172263443E0	-2,377950191E0	4,975050449E0	7,707000256E0
7,192425515E0	-1,542000055E0	5,691000462E0	5,266950130E0
7,212587655E0	-7,849500179E-1	6,201000214E0	2,593050241E0
7,232749893E0	-5,599500537E-1	6,414000511E0	2,889000177E0
7,252912060E0	-2,200050116E0	6,532050133E0	7,759050369E0
7,273074448E0	-3,049950123E0	5,746050358E0	1,186800098E1
7,293236568E0	-1,870050073E0	4,710000038E0	1,148700047E1
7,313398825E0	-1,200000048E0	5,028000355E0	8,851050377E0
7,333560979E0	-6,370500326E-1	5,454000473E0	7,363950253E0
7,353723357E0	2,220000178E-1	5,430000305E0	6,495000362E0
7,373885504E0	5,350500345E-1	5,278950214E0	7,156050205E0
7,394047646E0	1,350000054E-1	5,677050114E0	7,750050545E0
7,414209891E0	-9,820500612E-1	6,550950527E0	7,960950375E0
7,434372036E0	-2,353950024E0	7,758000374E0	8,904000282E0
7,454534433E0	-3,145950079E0	8,440050125E0	9,607950211E0
7,474696607E0	-3,199050188E0	8,080950737E0	9,766050339E0
7,494858867E0	-3,493050098E0	7,048950195E0	9,976950645E0
7,515021247E0	-3,951000214E0	6,273000240E0	1,136505032E1
7,535183488E0	-3,510000229E0	5,445000172E0	1,274400043E1
7,555345548E0	-2,878050089E0	4,276050091E0	1,283505058E1
7,575507693E0	-2,382000208E0	3,511950254E0	1,129095078E1
7,595669925E0	-1,918050051E0	3,025950193E0	8,767050743E0
7,615832083E0	-1,509000063E0	2,779950142E0	6,112050056E0
7,635994468E0	-9,600000381E-1	2,890050173E0	3,993000269E0
7,656156612E0	0,000000000E0	3,438000202E0	2,011049986E0
7,676318872E0	2,002950191E0	2,085000038E0	2,490000010E0
7,696481036E0	2,050950050E0	2,578950167E0	2,923050165E0
7,716643405E0	9,040500522E-1	4,621050358E0	3,823050261E0
7,736805548E0	-1,453050017E0	6,802050114E0	7,276050568E0
7,756967776E0	-3,201000214E0	6,994050503E0	1,040295029E1
7,777129916E0	-4,108950138E0	5,983050346E0	1,338405037E1
7,797292280E0	-5,086050034E0	5,842050076E0	1,612995148E1
7,817454454E0	-5,368050098E0	5,505000114E0	1,619700050E1
7,837616613E0	-3,625050068E0	4,449000359E0	1,339605045E1
7,857778757E0	-1,990050077E0	3,538950205E0	9,912000656E0
7,877940988E0	-7,810500264E-1	2,908950090E0	7,786050320E0
7,898103381E0	-5,290500522E-1	2,856000185E0	5,832000256E0
7,918265548E0	-6,079500318E-1	3,093000174E0	3,945000172E0
7,938427765E0	-7,140000463E-1	4,019999981E0	2,341050148E0
7,958589925E0	-1,000950098E0	5,335050106E0	9,859500527E-1
7,978752083E0	-1,687950134E0	7,228050232E0	8,970000148E-1
7,998914476E0	-4,309950352E0	9,106050491E0	5,098950386E0
8,019076644E0	-6,865050316E0	8,506950378E0	1,130805016E1
8,039238810E0	-6,466950417E0	6,817050457E0	1,624200058E1
8,059401026E0	-4,204050064E0	5,409000397E0	1,657500076E1
8,079563413E0	-2,335050106E0	4,519950390E0	1,405905056E1
8,099725582E0	-1,081950068E0	3,868950129E0	1,173405075E1
8,119887731E0	-3,105000220E-2	3,289950132E0	9,094950676E0
8,140049978E0	2,620500028E-1	3,220050097E0	6,816000462E0
8,160212360E0	-4,530000091E-1	3,819000244E0	5,824950218E0
8,180374509E0	-1,453050017E0	4,657050133E0	5,181000233E0
8,200536731E0	-1,777050138E0	5,068950176E0	4,813950062E0
8,220698889E0	-1,330950022E0	4,614000320E0	5,161950111E0
8,240861045E0	-1,746000051E0	4,726050377E0	7,033950329E0
8,261023424E0	-2,373000145E0	4,947000027E0	8,458950043E0
8,281185581E0	-9,960000515E-1	4,791000366E0	6,664950371E0
8,301347798E0	1,182000041E0	4,216050148E0	5,791050434E0
8,321509930E0	3,451050282E0	2,365950108E0	9,112050056E0
8,341672079E0	3,732000113E0	1,887000084E0	1,235895061E1
8,361834454E0	-2,200500071E-1	4,561050415E0	1,330500031E1
8,381996618E0	-4,975050449E0	6,172950268E0	1,686705017E1
8,402158850E0	-4,328999996E0	5,505000114E0	1,433700085E1
8,422321211E0	-1,657050133E0	4,377000332E0	9,013950348E0
8,442483351E0	3,010500073E-1	2,800950050E0	6,816000462E0
8,462645486E0	4,489500225E-1	1,543950081E0	6,340050220E0
8,482807640E0	-4,740000367E-1	1,864950061E0	5,272050381E0
8,502969806E0	-1,650000066E-1	1,840950131E0	3,802050114E0
8,523132023E0	2,251950026E0	4,840500355E-1	3,799050093E0
8,543294407E0	6,784050465E0	-2,929950237E0	8,736000061E0
8,563456559E0	4,870950222E0	-8,800500631E-1	1,104705048E1
8,583618727E0	-2,227050066E0	5,587950230E0	8,671950340E0
8,603781184E0	-4,461000443E0	9,297000885E0	6,217050076E0
8,623943356E0	-3,498000145E0	9,613050461E0	3,904950142E0
8,644105621E0	-5,389950275E0	8,983050346E0	7,603950500E0
8,664267775E0	-7,264050484E0	8,098050117E0	1,481505108E1
8,684430146E0	-6,520050526E0	6,855000496E0	1,777905083E1
8,704592304E0	-4,390950203E0	6,193950176E0	1,400805092E1
8,724754473E0	3,919500113E-1	5,397000313E0	7,017000198E0
8,744916707E0	6,355950356E0	1,257000089E0	6,550050259E0
8,765078876E0	6,712050438E0	-4,920000136E-1	1,049100018E1
8,785241261E0	2,749950171E0	1,984950066E0	1,110405064E1
8,805403415E0	-2,250000089E-1	4,125000000E0	1,053900051E1
8,825565563E0	-9,430500269E-1	5,635950089E0	7,719000340E0
8,845727794E0	-3,393000126E0	7,492050171E0	6,550050259E0
8,865889868E0	-6,948000431E0	7,884000301E0	1,043100071E1
8,886052083E0	-6,570000172E0	6,678000450E0	1,179405022E1
8,906214450E0	-3,027000189E0	4,317000389E0	7,702050209E0
8,926376583E0	6,210000515E-1	3,000000238E0	4,513050079E0
8,946538823E0	4,933950424E0	-1,251000047E0	7,390950203E0
8,966700946E0	6,607050419E0	-3,439950228E0	1,199700069E1
8,986863090E0	5,283000469E0	-2,494050026E0	1,376700020E1
9,007025585E0	2,685000181E0	4,090500176E-1	1,106400013E1
9,027187741E0	-3,109500110E-1	3,165000200E0	7,740000248E0
9,047349881E0	-2,368050098E0	5,442000389E0	6,213000298E0
9,067512271E0	-4,738050461E0	7,279050350E0	3,375000238E0
9,087674419E0	-6,181950092E0	9,127050400E0	4,072050095E0
9,107836655E0	-7,987050533E0	7,990050316E0	1,018500042E1
9,127998823E0	-6,630000114E0	5,524050236E0	1,244295025E1
9,148161213E0	-3,061950207E0	3,406950235E0	8,578050613E0
9,168323395E0	-2,230500132E-1	2,788950205E0	3,691950083E0
9,188485535E0	1,087950110E0	3,156000137E0	7,110000253E-1
9,208647784E0	3,985050201E0	4,099050045E0	1,905000024E-2
9,228809880E0	6,739050388E0	-1,351950049E0	9,558000565E0
9,248972357E0	6,229050159E0	-8,920500278E-1	1,632900047E1
9,269134496E0	4,099950314E0	1,087050080E0	1,810305023E1
9,289296674E0	1,603050113E0	2,763000250E0	1,847100067E1
9,309458819E0	-1,554000020E0	4,843950272E0	1,363695049E1
9,329621028E0	-4,341000080E0	7,042050362E0	9,462000847E0
9,349783171E0	-6,763950348E0	8,394000053E0	9,358950615E0
9,369945540E0	-8,766000748E0	9,571950912E0	1,288995075E1
9,390107703E0	-6,085950375E0	7,209000111E0	1,387005043E1
9,410269869E0	-1,884000063E0	3,690000057E0	1,053000069E1
9,430432095E0	-1,695000008E-2	2,605050087E0	7,708950520E0
9,450594462E0	1,468950033E0	1,693050027E0	5,238000393E0
9,470756606E0	3,447000265E0	3,019500077E-1	4,573050022E0
9,490918810E0	4,540950298E0	-6,880500317E-1	5,049000263E0
9,511080978E0	3,966000080E0	1,720500141E-1	5,041950226E0
9,531243351E0	1,615050077E0	2,923050165E0	3,888000250E0
9,551405496E0	-2,779500186E-1	5,418000221E0	2,964000225E0
9,571567649E0	-1,819950104E0	7,414950371E0	3,415950060E0
9,591729807E0	-3,556050062E0	8,524050713E0	5,667000294E0
9,611892045E0	-6,060000420E0	9,390000343E0	8,571000099E0
9,632054440E0	-5,920950413E0	9,406949997E0	9,948000908E0
9,652216592E0	-4,525050163E0	8,488050461E0	1,111095047E1
9,672379053E0	-1,626000047E0	6,322950363E0	1,168395042E1
9,692540978E0	3,133050203E0	1,975050092E0	1,212405014E1
9,712703122E0	5,214000225E0	-2,890500128E-1	1,356795025E1
9,732865486E0	2,572950125E0	1,237950087E0	1,378800106E1
9,753027640E0	1,500000060E-1	2,602950096E0	1,268205070E1
9,773189882E0	-9,220500588E-1	3,928950071E0	9,760950089E0
9,793352036E0	-2,382000208E0	5,614950180E0	6,622050285E0
9,813514433E0	-3,874050140E0	6,598950386E0	5,547000408E0
9,833676582E0	-4,480050087E0	6,534000397E0	6,225000381E0
9,853838738E0	-3,115050077E0	5,416050434E0	6,511950493E0
9,874000964E0	-9,240000248E-1	4,044000149E0	6,094950199E0
9,894163108E0	-1,369500011E-1	3,637050152E0	5,944950104E0
9,914325490E0	-4,530000091E-1	3,832950115E0	6,715050220E0
9,934487636E0	-9,670500755E-1	3,859950066E0	7,671000481E0
9,954649877E0	-1,042050004E0	3,775950193E0	7,968000412E0
9,974812045E0	-1,627950072E0	4,336050034E0	8,236050606E0
9,994974529E0	-2,107050180E0	4,906050205E0	8,659950256E0
1,001513663E1	-2,341950178E0	5,290950298E0	8,949000359E0
1,003529887E1	-2,575950146E0	5,505000114E0	8,935050011E0
1,005546100E1	-2,980950117E0	5,737050056E0	8,779050827E0
1,007562316E1	-2,899950027E0	5,779950142E0	8,560950279E0
1,009578554E1	-2,041949987E0	5,490000248E0	8,200050354E0
1,011594767E1	-9,319500327E-1	4,983000278E0	7,438950539E0
1,013610989E1	-9,390000701E-1	4,245000362E0	8,557050705E0
1,015627207E1	-1,843950033E0	3,970050097E0	1,025205040E1
1,017643420E1	-2,586000204E0	4,032000065E0	1,090500069E1
1,019659659E1	-2,469000101E0	3,730050087E0	1,002195072E1
1,021675874E1	-1,780950069E0	3,388050079E0	8,686050415E0
1,023692097E1	-1,192050099E0	2,908950090E0	8,451000214E0
1,025708312E1	-1,021950006E0	2,557050228E0	9,274950027E0
1,027724548E1	-2,121000051E0	3,145950079E0	9,961950302E0
1,029740771E1	-3,445950270E0	3,871950150E0	1,035705090E1
1,031756986E1	-2,689050198E0	3,589050055E0	1,117395020E1
1,033773200E1	-1,260000110E0	2,494950056E0	1,100805092E1
1,035789439E1	-2,080500126E-1	1,863000035E0	9,603000641E0
1,037805656E1	8,295000345E-2	2,020950079E0	7,891050339E0
1,039821881E1	-6,030000448E-1	3,079050064E0	7,393050194E0
1,041838095E1	-1,282950044E0	4,494000435E0	8,305050850E0
1,043854334E1	-9,889500737E-1	4,837050438E0	9,688950539E0
1,045870551E1	2,295000106E-2	4,141950130E0	1,005105019E1
1,047886774E1	9,810000658E-1	3,163050175E0	1,003395081E1
1,049902989E1	4,039500058E-1	2,662950039E0	1,069005013E1
1,051919228E1	-4,000500143E-1	2,293950081E0	1,096305084E1
1,053935444E1	-1,063050032E0	2,208000183E0	1,078800011E1
1,055951667E1	-1,522950053E0	2,562000036E0	1,003605080E1
1,057967875E1	-1,900950074E0	3,298950195E0	9,294000626E0
1,059984096E1	-1,753050089E0	3,916950226E0	8,056050301E0
1,062000315E1	-1,104000092E0	4,113000393E0	6,652950287E0
1,064016554E1	-7,350000143E-1	4,414950371E0	6,238950253E0
1,066032776E1	-1,255050063E0	5,109000206E0	7,575000286E0
1,068048991E1	-1,879950047E0	6,153000355E0	9,385050774E0
1,070065232E1	-1,183050036E0	6,225000381E0	9,568950653E0
1,072081446E1	6,049500108E-1	4,330950260E0	7,555950165E0
1,074097663E1	1,198050022E0	2,800950050E0	7,225050449E0
1,076113884E1	6,240000129E-1	1,633050084E0	8,551950455E0
1,078130098E1	-3,040500283E-1	1,243050098E0	9,261000633E0
1,080146314E1	-1,008000016E0	1,446000099E0	8,530050278E0
1,082162554E1	-1,149000049E0	1,669050097E0	7,630050182E0
1,084178770E1	-1,489050031E0	1,876950145E0	8,214000702E0
1,086194993E1	-2,418000221E0	2,734050035E0	9,622050285E0
1,088211208E1	-3,169950247E0	4,324050426E0	1,082895088E1
1,090227445E1	-2,278950214E0	5,095050335E0	1,185105038E1
1,092243669E1	6,019500494E-1	3,172050238E0	1,132005024E1
1,094259882E1	2,842950106E0	1,429050088E0	1,013895035E1
1,096276097E1	2,239950180E0	1,377000093E0	1,040505028E1
1,098292337E1	5,160000324E-1	2,538000107E0	1,047195053E1
1,100308554E1	-8,929500580E-1	3,723000288E0	9,366000175E0
1,102324767E1	-1,755000114E0	4,525050163E0	8,490000725E0
1,104340989E1	-2,148000002E0	4,930050373E0	7,699950218E0
1,106357204E1	-2,593050241E0	4,999050140E0	6,802050114E0
1,108373450E1	-1,942050099E0	4,048950195E0	6,130950451E0
1,110389666E1	-2,068950176E0	3,831000090E0	6,213000298E0
1,112405905E1	-2,611950159E0	3,946050167E0	8,056050301E0
1,114422119E1	-1,882050037E0	3,037950039E0	8,932950020E0
1,116438340E1	-9,270000458E-1	1,771950126E0	8,134950638E0
1,118454554E1	-1,036949992E0	2,133000135E0	8,104050636E0
1,120470772E1	-1,509000063E0	3,369000196E0	9,696000099E0
1,122487009E1	-3,027000189E0	5,413950443E0	1,294095039E1
1,124503224E1	-2,229000092E0	5,599950314E0	1,251195049E1
1,126519447E1	-3,570000231E-1	4,698000431E0	9,238950729E0
1,128535664E1	7,819500566E-1	3,631950140E0	7,779000282E0
1,130551880E1	-7,399500608E-1	4,117949963E0	9,265050888E0
1,132568118E1	-1,602000117E0	4,867950439E0	1,041195011E1
1,134584334E1	-8,050500154E-1	4,647000313E0	9,430950165E0
1,136600550E1	-7,695000619E-2	3,595950127E0	8,632950783E0
1,138616773E1	-4,069500268E-1	3,307050228E0	8,362950325E0
1,140632989E1	-1,386000037E0	3,654000282E0	8,791049957E0
1,142649228E1	-1,851000071E0	4,019999981E0	9,150000572E0
1,144665443E1	-1,450950027E0	3,733050108E0	9,115050316E0
1,146681665E1	-5,340000391E-1	3,036000252E0	8,690999985E0
1,148697904E1	-8,205000311E-2	2,677050114E0	8,767050743E0
1,150714128E1	-5,530500412E-1	3,163050175E0	9,265050888E0
1,152730341E1	-1,147050023E0	3,955050230E0	9,595950127E0
1,154746558E1	-1,726050138E0	4,659000397E0	9,522000313E0
1,156762796E1	-1,911000133E0	4,870050430E0	9,043050766E0
1,158779014E1	-1,450950027E0	4,318950176E0	8,374950409E0
1,160795236E1	-9,270000458E-1	3,546000242E0	8,011050224E0
1,162811450E1	-6,660000086E-1	3,061950207E0	8,170949936E0
1,164827689E1	-5,820000172E-1	2,851950169E0	8,833950043E0
1,166843881E1	-5,359500051E-1	2,707950115E0	9,543000221E0
1,168860119E1	-4,810500145E-1	2,497050047E0	9,378000259E0
1,170876343E1	-6,490500569E-1	2,746050119E0	8,743050575E0
1,172892558E1	-1,207050085E0	3,534000158E0	9,057000160E0
1,174908797E1	-1,912950039E0	4,530000210E0	1,042200089E1
1,176925013E1	-1,225950003E0	4,207050323E0	1,065900040E1
1,178941228E1	-5,295000225E-2	3,289950132E0	1,006695080E1
1,180957475E1	3,360000253E-1	2,976000071E0	1,021395016E1
1,182973667E1	-5,805000290E-2	3,160950184E0	1,121400070E1
1,184989884E1	-9,580500722E-1	3,097950220E0	1,120695019E1
1,187006123E1	-8,760000467E-1	2,827950239E0	8,554050446E0
1,189022346E1	-8,860500455E-1	2,634000063E0	6,634050369E0
1,191038561E1	-1,867950082E0	3,687000275E0	6,663000107E0
1,193054799E1	-3,034050226E0	4,876950264E0	8,439000130E0
1,195071015E1	-2,257950068E0	4,497000217E0	9,342000008E0
1,197087228E1	-3,190500140E-1	3,244050264E0	8,551950455E0
1,199103450E1	5,899500251E-1	2,602950096E0	8,430000305E0
1,201119689E1	2,719500065E-1	2,887950182E0	1,015800095E1
1,203135904E1	1,095000096E-2	3,187050104E0	1,126905060E1
1,205152128E1	1,780500114E-1	2,622000217E0	9,957000732E0
1,207168343E1	-3,619500101E-1	2,904000044E0	7,860000610E0
1,209184558E1	-1,494000077E0	4,212000370E0	7,873950481E0
1,211200799E1	-2,365950108E0	5,224050045E0	9,390000343E0
1,213217014E1	-1,372050047E0	4,662000179E0	9,736950874E0
1,215233236E1	-2,595000155E-2	3,310950041E0	8,692950249E0
1,217249475E1	3,600000143E-1	2,730000019E0	8,731050491E0
1,219265669E1	1,330500096E-1	2,803950071E0	9,178950310E0
1,221281906E1	1,740000099E-1	2,629050016E0	9,823050499E0
1,223298129E1	-1,440000087E-1	2,791950226E0	9,402000427E0
1,225314345E1	-6,540000439E-1	3,277950048E0	9,715950012E0
1,227330560E1	-2,083050013E0	4,719000340E0	1,132395077E1
1,229346798E1	-1,324050069E0	3,883950233E0	1,067805004E1
1,231363022E1	-6,750000119E-1	2,776950121E0	7,471950531E0
1,233379237E1	-7,140000463E-1	2,694000244E0	6,567000389E0
1,235395450E1	-1,486950040E0	3,349950075E0	8,107049942E0
1,237411689E1	-2,029950142E0	4,498950005E0	9,289050102E0
1,239427905E1	-5,629500151E-1	3,967050076E0	8,640000343E0
1,241444126E1	8,179500103E-1	2,835000038E0	8,133000374E0
1,243460342E1	3,679500222E-1	2,974050045E0	8,965950012E0
1,245476579E1	-1,048950076E0	4,354950428E0	1,021800041E1
1,247492794E1	-1,678950071E0	5,125950336E0	1,045500088E1
1,249509011E1	-1,231050014E0	4,585050106E0	1,012005043E1
1,251525233E1	-9,480000734E-1	3,841050148E0	9,514050484E0
1,253541471E1	-1,042050004E0	3,421950102E0	9,376049995E0
1,255557685E1	-2,065950155E0	3,991050243E0	1,020405006E1
1,257573902E1	-2,848950148E0	4,602000237E0	1,088595009E1
1,259590128E1	-1,968000054E0	3,903000116E0	9,972000122E0
1,261606346E1	-1,080000043E0	2,995050192E0	8,590050697E0
1,263622582E1	-3,070500195E-1	2,590950012E0	7,771050453E0
1,265638798E1	-2,179500163E-1	2,542950153E0	8,161950111E0
1,267655021E1	-1,057950020E0	3,424050093E0	9,498000145E0
1,269671235E1	-1,858050108E0	4,651950359E0	1,059405041E1
1,271687451E1	-1,578000069E0	4,594950199E0	9,787050247E0
1,273703690E1	-8,380500674E-1	4,188000202E0	8,053950310E0
1,275719904E1	-6,300000548E-1	4,135050297E0	7,101000309E0
1,277736128E1	-1,027050018E0	4,705049992E0	7,261050224E0
1,279752366E1	-1,233000040E0	5,145000458E0	8,157000542E0
1,281768583E1	-5,389500260E-1	4,549050331E0	8,217000008E0
1,283784799E1	2,505000122E-2	4,159049988E0	8,407950401E0
1,285801021E1	5,895000324E-2	4,057950020E0	9,817950249E0
1,287817234E1	-2,200500071E-1	4,156949997E0	1,088400078E1
1,289833449E1	-6,990000606E-1	4,372050285E0	1,063005066E1
1,291849689E1	-2,869500220E-1	3,697050095E0	9,454950333E0
1,293865905E1	1,069500074E-1	2,763000250E0	8,466000557E0
1,295882127E1	-3,210000098E-1	2,626950026E0	8,245050430E0
1,297898366E1	-1,315050006E0	3,273000240E0	8,723999977E0
1,299914581E1	-1,887000084E0	3,936000109E0	9,177000046E0
1,301930797E1	-1,927950144E0	4,261950016E0	9,589050293E0
1,303947018E1	-1,456050038E0	3,891000271E0	9,835050583E0
1,305963233E1	9,900000691E-2	2,209950209E0	9,349050522E0
1,307979450E1	7,770000100E-1	1,140000105E0	8,695950508E0
1,309995689E1	8,059500456E-1	7,690500617E-1	8,137949944E0
1,312011913E1	4,440000355E-1	1,449000120E0	8,029950142E0
1,314028127E1	-6,319500208E-1	3,049950123E0	9,394950867E0
1,316044364E1	-1,420050025E0	4,036950111E0	9,502050400E0
1,318060582E1	-7,020000219E-1	3,943050146E0	7,546050549E0
1,320076829E1	-2,899500132E-1	3,852000237E0	7,510050297E0
1,322093021E1	-9,769500494E-1	4,360050201E0	9,916950226E0
1,324109236E1	-1,582950115E0	4,746000290E0	1,056600094E1
1,326125475E1	-5,700000525E-1	3,838050127E0	8,296050072E0
1,328141692E1	-2,779500186E-1	3,156000137E0	7,668000221E0
1,330157916E1	-1,248000026E0	3,421950102E0	8,734050751E0
1,332174133E1	-1,915950060E0	3,666000128E0	9,768000603E0
1,334190347E1	-1,390950084E0	3,144000053E0	9,142950058E0
1,336206587E1	-1,123050094E0	2,871000051E0	8,533050537E0
1,338222802E1	-1,240050077E0	2,974050045E0	8,928000450E0
1,340239024E1	-2,050050020E0	3,915000200E0	1,023705006E1
1,342255261E1	-1,963050127E0	4,216050148E0	1,061595058E1
1,344271477E1	-7,500000596E-1	3,493050098E0	9,925950050E0
1,346287693E1	7,995000482E-2	2,971050024E0	1,009905052E1
1,348303918E1	6,405000389E-2	3,133950233E0	1,101795006E1
1,350320133E1	3,960000277E-1	3,024000168E0	1,110405064E1
1,352336347E1	1,198050022E0	2,227050066E0	9,916950226E0
1,354352585E1	5,040000081E-1	2,593050241E0	8,976000786E0
1,356368808E1	-9,460500479E-1	3,912000179E0	9,739050865E0
1,358385021E1	-1,918050051E0	5,172000408E0	1,037400055E1
1,360401260E1	-1,024950027E0	4,429050446E0	8,509050369E0
1,362417474E1	2,740500271E-1	2,983050108E0	6,088050365E0
1,364433699E1	-5,295000225E-2	2,521050215E0	6,238950253E0
1,366449939E1	-1,579950094E0	3,544050217E0	8,491950035E0
1,368466153E1	-3,048000097E0	5,064000130E0	1,021605015E1
1,370482370E1	-2,406000137E0	5,251050472E0	9,349050522E0
1,372498596E1	-8,329500556E-1	4,000950336E0	8,593050003E0
1,374514812E1	-1,840500087E-1	3,175050259E0	8,475000381E0
1,376531027E1	-3,829500079E-1	2,943000078E0	8,487000465E0
1,378547243E1	-8,839500546E-1	3,436050177E0	9,141000748E0
1,380563479E1	-1,036949992E0	4,153950214E0	1,068300056E1
1,382579692E1	-5,890500546E-1	4,386000156E0	1,140405083E1
1,384595908E1	7,789500356E-1	3,484050274E0	1,010595036E1
1,386612132E1	1,099950075E0	3,201000214E0	8,944950104E0
1,388628346E1	3,649500310E-1	3,526950121E0	9,498000145E0
1,390644563E1	-1,489500105E-1	3,556050062E0	9,780000687E0
1,392660800E1	-5,130000114E-1	3,259050131E0	9,085950851E0
1,394677016E1	-7,140000463E-1	3,016950130E0	7,891050339E0
1,396693261E1	-1,531950116E0	3,429000139E0	7,527000427E0
1,398709475E1	-2,659950018E0	4,714050293E0	8,329050064E0
1,400725692E1	-2,253000021E0	4,261950016E0	8,815050125E0
1,402741913E1	-9,120000601E-1	3,072000027E0	7,921950340E0
1,404758126E1	-4,800000042E-2	2,167050123E0	7,233000278E0
1,406774340E1	-6,705000252E-2	1,896000147E0	8,004000664E0
1,408790578E1	-1,054050088E0	2,968950033E0	9,735000610E0
1,410806792E1	-1,546950102E0	4,048950195E0	1,140105057E1
1,412823016E1	-9,720000625E-1	4,156949997E0	1,163295078E1
1,414839232E1	-2,230500132E-1	3,787950277E0	1,084095097E1
1,416855448E1	-1,319999993E-1	3,570000172E0	9,723000526E0
1,418871663E1	-3,900000155E-1	3,031050205E0	8,454000473E0
1,420887903E1	-1,386000037E0	3,316050053E0	7,695000172E0
1,422904118E1	-2,287050009E0	4,033950329E0	8,538000107E0
1,424920342E1	-2,089950085E0	4,080000401E0	1,031895065E1
1,426936557E1	-1,168950081E0	3,331050158E0	1,079100037E1
1,428952772E1	-4,909500182E-1	2,506950140E0	1,020405006E1
1,430969012E1	-7,695000619E-2	2,040000200E0	8,667000771E0
1,432985234E1	-4,890000224E-1	2,350950003E0	7,519950390E0
1,435001452E1	-1,774050117E0	3,639000177E0	7,378950119E0
1,437017668E1	-2,754000187E0	5,191050053E0	8,485050201E0
1,439033883E1	-2,847000122E0	5,701050282E0	9,706050873E0
1,441050123E1	-1,846050143E0	4,927950382E0	9,622050285E0
1,443066338E1	-7,005000114E-2	3,120000124E0	8,080050468E0
1,445082562E1	2,140500098E-1	2,578950167E0	7,768950462E0
1,447098776E1	-1,200000048E-1	2,746050119E0	9,337050438E0
1,449115014E1	-1,990500093E-1	2,859000206E0	1,065405083E1
1,451131230E1	7,480500340E-1	2,377950191E0	1,038795090E1
1,453147446E1	1,183950067E0	2,506950140E0	1,024200058E1
1,455163669E1	1,014000058E0	2,730000019E0	1,049595070E1
1,457179885E1	2,569500208E-1	3,259050131E0	9,865950584E0
1,459196122E1	-7,399500608E-1	4,353000164E0	9,829950333E0
1,461212337E1	-1,300050020E0	4,791000366E0	9,826050758E0
1,463228559E1	-1,063050032E0	4,132950306E0	8,518050194E0
1,465244775E1	-4,980000257E-1	3,060000181E0	6,643950462E0
1,467261013E1	-1,108950019E0	3,319050074E0	6,313050270E0
1,469277228E1	-1,975050092E0	4,111050129E0	7,234950542E0
1,471293444E1	-2,682000160E0	4,840950012E0	7,891050339E0
1,473309668E1	-2,452050209E0	4,936950207E0	7,813950539E0
1,475325904E1	-1,627950072E0	4,401000023E0	8,098950386E0
1,477342120E1	-1,285950065E0	4,036950111E0	8,976000786E0
1,479358337E1	-1,627950072E0	4,008000374E0	9,850050926E0
1,481374558E1	-1,831950068E0	3,795000076E0	1,001700020E1
1,483390773E1	-1,687950134E0	3,283050060E0	9,282000542E0
1,485407011E1	-1,717050076E0	3,156000137E0	9,139050484E0
1,487423226E1	-1,825050116E0	3,093000174E0	9,366000175E0
1,489439443E1	-1,518000126E0	3,205950260E0	1,009095001E1
1,491455665E1	-9,340500236E-1	2,974050045E0	1,085805035E1
1,493471903E1	-5,220000148E-1	2,833050251E0	1,135095024E1
1,495488097E1	-5,839500427E-1	2,848950148E0	1,104705048E1
1,497504333E1	-1,560000032E-1	2,398950100E0	9,411000252E0
1,499520549E1	-6,870000362E-1	3,076950073E0	8,370000839E0
1,501536772E1	-1,386000037E0	4,285950184E0	8,194950104E0
1,503552987E1	-1,729050040E0	5,257950306E0	8,619000435E0
1,505569226E1	-1,348050117E0	5,256000042E0	8,310000420E0
1,507585443E1	-2,200500071E-1	4,317000389E0	7,297050476E0
1,509601660E1	3,820500076E-1	3,358950138E0	6,919050217E0
1,511617883E1	-6,060000062E-1	3,639000177E0	8,001000404E0
1,513634101E1	-2,035050154E0	4,843950272E0	9,655950546E0
1,515650340E1	-2,113950014E0	5,293950081E0	1,063995075E1
1,517666556E1	-9,750000238E-1	4,390950203E0	9,880950928E0
1,519682778E1	0,000000000E0	3,144000053E0	8,719950676E0
1,521698991E1	-6,589500308E-1	3,534000158E0	8,583000183E0
1,523715232E1	-2,442000151E0	5,119050026E0	9,814050674E0
1,525731446E1	-3,265950203E0	5,815950394E0	1,060905075E1
1,527747662E1	-1,816950083E0	4,236000061E0	9,663000107E0
1,529763910E1	-1,170000061E-1	2,107050180E0	8,614050865E0
1,531780102E1	4,920000136E-1	1,570950031E0	8,715000153E0
1,533796341E1	1,141050100E0	1,175999999E0	8,937000275E0
1,535812556E1	1,009050012E0	1,543950081E0	1,012500095E1
1,537828769E1	2,809500098E-1	2,212050200E0	1,093395042E1
1,539844992E1	-2,800500095E-1	2,815950155E0	1,041705036E1
1,541861207E1	-1,185000062E0	3,661050081E0	1,009095001E1
1,543877444E1	-1,564050078E0	4,204050064E0	9,202950478E0
1,545893660E1	-1,614000082E0	3,843000174E0	7,651950359E0
1,547909883E1	-1,645050049E0	4,173000336E0	6,318000317E0
1,549926091E1	-2,506950140E0	5,275050163E0	7,285050392E0
1,551942315E1	-2,880000114E0	5,301000118E0	8,581050873E0
1,553958530E1	-1,485000014E0	3,730050087E0	7,282950401E0
1,555974767E1	-5,479500294E-1	3,004950047E0	6,603000164E0
1,557990991E1	-1,534950018E0	3,996000290E0	8,739000320E0
1,560007207E1	-3,058050156E0	5,799000263E0	1,117605019E1
1,562023421E1	-3,019050121E0	6,048000336E0	1,124100018E1
1,564039661E1	-2,551950216E0	5,554950237E0	9,718050003E0
1,566055874E1	-1,606950045E0	5,185950279E0	8,707950592E0
1,568072089E1	-1,149000049E0	5,004000187E0	9,586050034E0
1,570088337E1	-2,920500040E-1	4,072950363E0	1,030005074E1
1,572104529E1	5,879999995E-1	3,121950150E0	1,035000038E1
1,574120742E1	1,315950036E0	2,440050125E0	1,016295052E1
1,576136981E1	1,510050058E0	2,056950092E0	9,948000908E0
1,578153196E1	1,167000055E0	1,966050148E0	1,025205040E1
1,580169417E1	9,730500579E-1	1,918050051E0	9,687000275E0
1,582185655E1	8,700000644E-1	1,747950077E0	9,049950600E0
1,584201848E1	1,012050033E0	1,717050076E0	9,031050682E0
1,586218085E1	9,109500647E-1	1,546950102E0	9,663000107E0
1,588234302E1	2,140500098E-1	1,995000124E0	1,053405094E1
1,590250515E1	-4,930500090E-1	2,587950230E0	1,123605061E1
1,592266760E1	2,140500098E-1	1,687950134E0	1,041705036E1
1,594282953E1	1,153050065E0	3,930000067E-1	7,825950146E0
1,596299190E1	7,320000529E-1	4,890000224E-1	6,064050198E0
1,598315408E1	-7,159500122E-1	2,104950190E0	5,808000088E0
1,600331624E1	-3,285000086E0	5,152950287E0	8,335950851E0
1,602347846E1	-4,570950031E0	6,742050171E0	1,057005024E1
1,604364062E1	-3,217950106E0	5,370000362E0	8,146950722E0
1,606380304E1	-8,860500455E-1	3,655950069E0	4,149000168E0
1,608396519E1	-8,119500279E-1	4,189949989E0	2,968050241E0
1,610412742E1	-3,958050251E0	7,096950531E0	7,072050571E0
1,612428983E1	-5,119050026E0	8,338950157E0	1,176300049E1
1,614445199E1	-1,918050051E0	5,161950111E0	1,232295036E1
1,616461414E1	1,234050035E0	2,188050032E0	1,162095070E1
1,618477639E1	2,002950191E0	1,746000051E0	1,289295101E1
1,620493853E1	2,326050043E0	1,642950058E0	1,481100082E1
1,622510070E1	2,464950085E0	1,249950051E0	1,493700027E1
1,624526310E1	1,086000085E0	2,787000179E0	1,427895069E1
1,626542502E1	6,049500108E-1	2,983050108E0	1,148700047E1
1,628558740E1	4,369500279E-1	2,581050158E0	7,977000237E0
1,630574955E1	-4,020000100E-1	2,659950018E0	5,782050133E0
1,632591170E1	-1,446000099E0	2,902050257E0	5,062950134E0
1,634607386E1	-1,554000020E0	2,557050228E0	4,813950062E0
1,636623610E1	-9,990000725E-1	1,831950068E0	4,393050194E0
1,638639822E1	-9,000000358E-1	1,645050049E0	4,495950222E0
1,640656061E1	-9,670500755E-1	1,984950066E0	5,218950272E0
1,642672275E1	-2,848950148E0	5,317950249E0	7,503000259E0
1,644688496E1	-4,659000397E0	7,509000301E0	1,139400101E1
1,646704710E1	-2,442000151E0	6,085950375E0	1,008405018E1
1,648720949E1	1,603050113E0	3,622950077E0	6,892950535E0
1,650737164E1	3,499050140E0	3,144000053E0	6,732000351E0
1,652753386E1	2,440950155E0	3,153000116E0	1,133895016E1
1,654769602E1	1,300950050E0	2,617050171E0	1,523700047E1
1,656785819E1	4,660500288E-1	2,356050014E0	1,522005081E1
1,658802057E1	7,819500566E-1	1,678050041E0	1,079805088E1
1,660818273E1	1,246050000E0	8,689500690E-1	6,909000397E0
1,662834488E1	2,670000196E-1	1,687950134E0	6,210000515E0
1,664850710E1	-8,839500546E-1	2,610000134E0	7,101000309E0
1,666866927E1	-2,124000072E0	3,876000166E0	8,314949989E0
1,668883141E1	-2,550000191E0	4,743000031E0	8,719950676E0
1,670899356E1	-1,810050130E0	4,615950108E0	8,158950806E0
1,672915596E1	-1,552050114E0	4,734000206E0	8,530050278E0
1,674931819E1	-1,651950121E0	5,041950226E0	9,937950134E0
1,676948026E1	-1,045950055E0	4,798050404E0	1,051800060E1
1,678964242E1	-3,229500055E-1	4,780950069E0	1,005300045E1
1,680980467E1	6,330000162E-1	3,730050087E0	9,652950287E0
1,682996705E1	1,026000023E0	2,742000103E0	8,953950882E0
1,685012921E1	2,070000172E-1	3,025950193E0	9,226950645E0
1,687029137E1	-2,400000095E-1	3,261000156E0	9,358950615E0
1,689045350E1	-5,340000391E-1	3,382950068E0	1,022100067E1
1,691061575E1	-1,381950021E0	4,164000034E0	1,160205078E1
1,693077790E1	-1,564050078E0	4,168950081E0	1,228500080E1
1,695094028E1	-5,295000225E-2	2,530950069E0	9,723000526E0
1,697110244E1	8,580000401E-1	1,426950097E0	6,766050339E0
1,699126468E1	1,570500135E-1	2,254950047E0	6,499950409E0
1,701142683E1	-9,430500269E-1	4,140000343E0	8,596950531E0
1,703158898E1	-9,720000625E-1	4,434000015E0	1,096500015E1
1,705175112E1	5,929500461E-1	2,880000114E0	1,045500088E1
1,707191352E1	1,572000027E0	1,623000026E0	8,344050407E0
1,709207568E1	1,282050014E0	2,032950163E0	7,587000370E0
1,711223789E1	-1,113000035E0	4,932000160E0	1,010595036E1
1,713240003E1	-2,868000031E0	6,853050232E0	1,154700089E1
1,715256219E1	-2,989500165E-1	4,647000313E0	8,011050224E0
1,717272436E1	1,051950097E0	3,751950264E0	4,963050365E0
1,719288675E1	-3,979500234E-1	4,888950348E0	6,756000519E0
1,721304890E1	-2,059050083E0	6,024000168E0	1,079295063E1
1,723321111E1	-5,149500370E-1	3,742050171E0	1,004805088E1
1,725337327E1	8,920500278E-1	2,179050207E0	7,393050194E0
1,727353565E1	2,650500238E-1	2,469000101E0	6,889950275E0
1,729369780E1	-2,385000229E0	5,140950203E0	9,040050507E0
1,731385994E1	-3,850050211E0	7,023000240E0	1,098195076E1
1,733402211E1	-2,368050098E0	6,694050312E0	1,071405029E1
1,735418427E1	7,440000176E-1	4,249950409E0	9,616950035E0
1,737434673E1	2,902950048E0	1,984950066E0	7,756950378E0
1,739450866E1	1,846950054E0	2,136000156E0	8,242950439E0
1,741467105E1	4,710000157E-1	3,378000259E0	9,784950256E0
1,743483317E1	2,190000117E-1	3,994050264E0	9,601050377E0
1,745499531E1	1,309500039E-1	4,429050446E0	9,277050018E0
1,747515753E1	1,309500039E-1	3,895950079E0	9,057000160E0
1,749531968E1	1,999500096E-1	3,699000120E0	8,253000259E0
1,751548206E1	9,730500579E-1	2,710050106E0	7,680000305E0
1,753564421E1	8,200500607E-1	2,100000143E0	7,642050266E0
1,755580636E1	-7,450500131E-1	3,301950216E0	7,747050285E0
1,757596857E1	-1,663950086E0	4,273950100E0	7,447950363E0
1,759613075E1	-1,188000083E0	4,309950352E0	7,009950161E0
1,761629292E1	-2,320500165E-1	4,303050041E0	8,053950310E0
1,763645529E1	4,830000103E-1	3,991050243E0	9,964950562E0
1,765661745E1	1,330050111E0	3,418950081E0	1,068000031E1
1,767677961E1	1,500000119E0	3,465000153E0	1,057500076E1
1,769694185E1	1,000050068E0	3,721050262E0	1,023495007E1
1,771710403E1	2,569500208E-1	3,438000202E0	9,379950523E0
1,773726619E1	-9,960000515E-1	4,509000301E0	9,130949974E0
1,775742856E1	-7,140000463E-1	4,519950390E0	8,913000107E0
1,777759073E1	4,350000322E-1	3,466950178E0	7,173000336E0
1,779775292E1	-8,400000632E-2	4,123050213E0	6,895050526E0
1,781791515E1	-1,807950139E0	6,108000278E0	9,100049973E0
1,783807756E1	-1,582950115E0	6,331050396E0	1,117095089E1
1,785823971E1	1,912050128E0	2,764950037E0	8,062950134E0
1,787840185E1	2,221050024E0	1,461000085E0	6,226950169E0
1,789856399E1	1,026000023E0	1,935000062E0	7,245000362E0
1,791872613E1	-1,192050099E0	3,721050262E0	1,082595062E1
1,793888838E1	-4,348050117E0	6,108000278E0	1,257195091E1
1,795905078E1	-3,355050087E0	5,545050144E0	9,691950798E0
1,797921294E1	-4,189500213E-1	2,931000233E0	7,489050388E0
1,799937507E1	8,869500160E-1	8,070000410E-1	7,603950500E0
1,801953721E1	2,929500043E-1	1,401000023E0	8,731050491E0
1,803969944E1	-2,730000019E-1	2,823000193E0	1,030695057E1
1,805986161E1	5,205000192E-2	3,417000055E0	1,131300068E1
1,808002396E1	9,160500169E-1	2,806050062E0	1,075905037E1
1,810018622E1	2,029050112E0	2,040000200E0	9,127050400E0
1,812034828E1	2,011950016E0	1,936950088E0	8,083050728E0
1,814051051E1	3,100500107E-1	3,196050167E0	8,214000702E0
1,816067265E1	-1,780950069E0	5,373000145E0	9,832950592E0
1,818083481E1	-1,501050115E0	5,229000092E0	1,093200016E1
1,820099719E1	1,203000069E0	2,619000196E0	9,205950737E0
1,822115938E1	2,355000019E0	6,799500585E-1	6,682050228E0
1,824132162E1	1,783050060E0	7,690500617E-1	5,667000294E0
1,826148370E1	-3,379500210E-1	3,342000246E0	7,519950390E0
1,828164590E1	-3,618000269E0	7,516050339E0	1,242300034E1
1,830180806E1	-2,902050257E0	7,525050163E0	1,394400024E1
1,832197054E1	1,792050123E0	3,541050196E0	9,322950363E0
1,834213262E1	3,325050116E0	2,317950010E0	6,511950493E0
1,836229478E1	8,730000257E-1	3,793050289E0	9,142950058E0
1,838245701E1	-1,261950016E0	5,952000141E0	1,210005093E1
1,840261940E1	-1,339500099E-1	4,872000217E0	1,034505081E1
1,842278130E1	1,194000006E0	3,823950291E0	8,461050034E0
1,844294368E1	1,549500078E-1	4,645050049E0	9,361050606E0
1,846310583E1	-8,290500641E-1	4,990050316E0	1,068495083E1
1,848326799E1	-2,680500150E-1	3,586950064E0	8,690999985E0
1,850343022E1	-2,749500275E-1	3,280050039E0	7,060050488E0
1,852359237E1	-2,299500108E-1	3,283050060E0	6,535950184E0
1,854375471E1	-1,032000065E0	4,185000420E0	7,021950245E0
1,856391694E1	-1,960950136E0	5,671950340E0	8,137949944E0
1,858407907E1	-1,627950072E0	6,181950092E0	9,607950211E0
1,860424122E1	3,870000243E-1	4,606950283E0	9,325050354E0
1,862440337E1	1,186050057E0	3,433050156E0	8,214000702E0
1,864456575E1	6,960000396E-1	3,333000183E0	8,989950180E0
1,866472791E1	-1,650000066E-1	4,426949978E0	1,024005032E1
1,868489015E1	-3,280500174E-1	4,932000160E0	1,060095024E1
1,870505229E1	4,350000322E-1	3,996000290E0	1,032405090E1
1,872521444E1	7,770000100E-1	2,962050200E0	9,937950134E0
1,874537682E1	4,129500091E-1	2,409000158E0	9,210000038E0
1,876553873E1	-7,039500475E-1	3,004950047E0	8,182950020E0
1,878570089E1	-1,669050097E0	3,874050140E0	8,039999962E0
1,880586305E1	-1,530000091E0	3,960000277E0	8,253000259E0
1,882602544E1	-9,049500227E-1	3,675000191E0	8,314949989E0
1,884618768E1	-2,629500031E-1	3,232050180E0	8,061000824E0
1,886634988E1	2,500500083E-1	3,058050156E0	7,756950378E0
1,888651195E1	4,050000105E-3	3,742050171E0	8,775000572E0
1,890667420E1	-1,680000126E-1	4,216050148E0	9,820950508E0
1,892683662E1	1,860000044E-1	3,952950239E0	1,004595089E1
1,894699877E1	1,210500076E-1	3,634950161E0	9,775050163E0
1,896716102E1	-1,068000078E0	4,414950371E0	9,865950584E0
1,898732316E1	-1,473000050E0	4,578000069E0	9,406949997E0
1,900748530E1	-1,293000102E0	4,578000069E0	8,740950584E0
1,902764768E1	-9,409500360E-1	4,361999989E0	8,218950272E0
1,904780985E1	-4,909500182E-1	4,068000317E0	7,980000496E0
1,906797201E1	-1,905000024E-2	3,754050255E0	8,004000664E0
1,908813425E1	4,710000157E-1	3,627000093E0	9,378000259E0
1,910829632E1	1,774950027E0	2,788950205E0	1,053705025E1
1,912845849E1	3,076050043E0	1,789050102E0	1,100100040E1
1,914862072E1	4,014000416E0	6,870000362E-1	1,067100048E1
1,916878287E1	3,483000278E0	1,209000111E0	1,146105099E1
1,918894501E1	2,125050068E0	2,959050179E0	1,329300022E1
1,920910718E1	1,479000092E0	3,168000221E0	1,351995087E1
1,922926955E1	1,501950026E0	2,241000175E0	9,993000031E0
1,924943169E1	1,423050046E0	1,774050117E0	6,378000259E0
1,926959385E1	6,139500141E-1	2,269950151E0	4,361999989E0
1,928975607E1	-1,362000108E0	3,778050184E0	4,099050045E0
1,930991822E1	-3,366000175E0	5,482950211E0	4,647000313E0
1,933008037E1	-3,625050068E0	5,868000507E0	4,903050423E0
1,935024276E1	-2,788950205E0	5,521050453E0	4,843050003E0
1,937040492E1	-3,280050039E0	6,646950245E0	6,481050491E0
1,939056708E1	-3,970050097E0	7,765050411E0	9,253050804E0
1,941072923E1	-2,446950197E0	7,594950199E0	1,034805012E1
1,943089137E1	3,439500034E-1	6,490950108E0	9,589050293E0
1,945105358E1	3,340500295E-1	6,607950211E0	1,184205055E1
1,947121574E1	2,650500238E-1	6,400050163E0	1,508100033E1
1,949137790E1	2,731050014E0	3,898050070E0	1,404900074E1
1,951154027E1	3,597000122E0	2,047049999E0	1,114995098E1
1,953170240E1	3,697950125E0	1,269000053E0	1,006500053E1
1,955186456E1	2,941050053E0	6,990000606E-1	9,997950554E0
1,957202681E1	1,432950020E0	1,554000020E0	9,957000732E0
1,959218898E1	4,905000329E-2	2,575950146E0	9,546000481E0
1,961235113E1	-1,341000080E0	3,316050053E0	8,941950798E0
1,963251328E1	-1,843950033E0	3,184050083E0	7,615950584E0
1,965267567E1	-1,153950095E0	2,052000046E0	5,470050335E0
1,967283784E1	-3,540000021E-1	1,317000031E0	3,984000206E0
1,969300007E1	-5,130000114E-1	1,870050073E0	4,513050079E0
1,971316223E1	-1,722000122E0	3,679950237E0	7,905000210E0
1,973332437E1	-1,884000063E0	4,248000145E0	1,030005074E1
1,975348654E1	3,600000143E-1	3,280050039E0	8,072999954E0
1,977364895E1	1,917000055E0	3,153000116E0	6,160050392E0
1,979381109E1	1,189050078E0	4,863000393E0	8,149950027E0
1,981397322E1	-1,680000126E-1	6,934050560E0	1,147305012E1
1,983413546E1	3,439500034E-1	6,733050346E0	1,132200050E1
1,985429761E1	1,255950093E0	5,293950081E0	9,619950294E0
1,987445972E1	7,789500356E-1	4,519950390E0	9,139050484E0
1,989462188E1	3,195000067E-2	3,655950069E0	8,992050171E0
1,991478428E1	-5,530500412E-1	2,959050179E0	9,115050316E0
1,993494642E1	-1,336050034E0	2,878050089E0	1,017000008E1
1,995510854E1	-2,188950062E0	3,454950094E0	1,180095100E1
1,997527069E1	-2,526000023E0	4,305000305E0	1,255305099E1
1,999543294E1	-2,040000200E0	5,029950142E0	1,181805038E1
2,001559509E1	4,969500303E-1	3,975000143E0	8,538000107E0
2,003575746E1	2,544000149E0	2,670000076E0	5,722050190E0
2,005591963E1	2,187000036E0	2,542950153E0	6,295950413E0
2,007608180E1	8,460000157E-1	3,583950281E0	8,716950417E0
2,009624395E1	-3,405000269E-2	4,879950047E0	1,125000095E1
2,011640618E1	9,760500193E-1	4,248000145E0	1,037205029E1
2,013656835E1	2,245050192E0	2,751000166E0	7,455000401E0
2,015673049E1	1,890000105E0	2,694000244E0	6,024000168E0
2,017689262E1	-5,505000427E-2	3,538950205E0	7,731000423E0
2,019705509E1	-2,904000044E0	6,088950157E0	1,166895008E1
2,021721720E1	-2,923950195E0	6,015000343E0	1,208295059E1
2,023737943E1	7,819500566E-1	2,586000204E0	7,587000370E0
2,025754159E1	2,673000097E0	7,279500365E-1	5,080050468E0
2,027770374E1	2,392950058E0	6,370500326E-1	6,672000408E0
2,029786590E1	7,789500356E-1	2,461050034E0	1,057005024E1
2,031802803E1	-1,048950076E0	5,196000099E0	1,394895077E1
2,033819019E1	-5,029500127E-1	5,481000423E0	1,197600079E1
2,035835258E1	1,948050141E0	3,508050203E0	7,309050560E0
2,037851474E1	2,206050158E0	2,955000162E0	5,335950375E0
2,039867689E1	-1,819500029E-1	4,051050186E0	8,380050659E0
2,041883911E1	-2,365950108E0	5,077950478E0	1,072800064E1
2,043900127E1	-1,860000134E0	4,549050331E0	8,925000191E0
2,045916343E1	-7,729500532E-1	3,670950174E0	7,831050396E0
2,047932559E1	-3,829500079E-1	3,204000235E0	9,571950912E0
2,049948798E1	-2,520000041E-1	3,376050234E0	1,125705051E1
2,051965012E1	6,000000052E-3	3,972000122E0	1,082400036E1
2,053981228E1	2,599500120E-1	4,341000080E0	9,610050201E0
2,055997443E1	1,255950093E0	3,820950270E0	8,736000061E0
2,058013665E1	2,362050056E0	2,821050167E0	7,290000439E0
2,060029903E1	2,166000128E0	3,127050161E0	7,455000401E0
2,062046095E1	1,792050123E0	3,763950109E0	8,880000114E0
2,064062335E1	7,990500331E-1	5,382000446E0	1,100595093E1
2,066078550E1	9,280500412E-1	5,605050087E0	1,175505066E1
2,068094765E1	2,320950031E0	4,185000420E0	9,145950317E0
2,070110990E1	2,434050083E0	2,923050165E0	6,313050270E0
2,072127206E1	1,438050032E0	2,445000172E0	5,521050453E0
2,074143443E1	-1,003050089E0	3,136950254E0	7,383000374E0
2,076159637E1	-3,727950096E0	4,051050186E0	1,096095085E1
2,078175853E1	-4,614000320E0	3,900000095E0	1,148700047E1
2,080192092E1	-3,343050241E0	2,196000099E0	8,557050705E0
2,082208315E1	-1,789050102E0	9,910500646E-1	5,724000454E0
2,084224521E1	-2,011049986E0	1,342950106E0	7,510050297E0
2,086240744E1	-3,061950207E0	3,309000254E0	1,210995102E1
2,088256960E1	-1,212000012E0	3,666000128E0	1,167405033E1
2,090273199E1	1,252950072E0	3,430950165E0	8,178000450E0
2,092289391E1	2,968050241E0	4,032000065E0	7,027050495E0
2,094305607E1	3,937050104E0	4,176000118E0	7,977000237E0
2,096321844E1	3,607050180E0	4,345950127E0	9,637050629E0
2,098338059E1	2,953050137E0	4,609050274E0	1,154505062E1
2,100354273E1	2,308950186E0	5,101950169E0	1,230105019E1
2,102370517E1	1,870950103E0	4,183050156E0	1,008195019E1
2,104386730E1	2,137050152E0	2,469000101E0	7,339950562E0
2,106402948E1	1,801950097E0	1,401000023E0	6,064050198E0
2,108419163E1	1,710000038E-1	1,767000079E0	7,369050503E0
2,110435377E1	-2,287050009E0	4,223999977E0	1,077600098E1
2,112451590E1	-3,085950136E0	5,449050426E0	1,328505039E1
2,114467813E1	-1,440000087E-1	3,132000208E0	1,041900063E1
2,116484028E1	3,076050043E0	4,930500090E-1	5,968050480E0
2,118500243E1	2,901000023E0	5,910000205E-1	5,533050060E0
2,120516481E1	1,015950084E0	2,562000036E0	8,854050636E0
2,122532674E1	-3,010050058E0	6,169950485E0	1,223400021E1
2,124548891E1	-3,855000257E0	7,441950321E0	9,196050644E0
2,126565128E1	-2,299050093E0	5,694000244E0	5,020050049E0
2,128581322E1	-1,312050104E0	4,381950378E0	2,401050091E0
2,130597560E1	-2,224050045E0	4,354950428E0	4,744950294E0
2,132613774E1	-2,203050137E0	3,553050280E0	8,122950554E0
2,134629990E1	-1,492050052E0	3,405000210E0	1,035495090E1
2,136646214E1	2,340000123E-1	2,497050047E0	1,214595032E1
2,138662429E1	2,209050179E0	2,380050182E0	1,381005096E1
2,140678644E1	4,291950226E0	2,803950071E0	1,605300140E1
2,142694883E1	8,074950218E0	-1,469999999E-1	1,405905056E1
2,144711098E1	7,174950123E0	-3,030000031E-1	1,140795040E1
2,146727313E1	2,998950243E0	1,360050082E0	1,144395065E1
2,148743537E1	6,450000405E-1	1,968000054E0	1,100595093E1
2,150759754E1	-1,005000062E-2	1,291050076E0	7,879050255E0
2,152775969E1	6,360000372E-1	2,389500141E-1	3,805950165E0
2,154792184E1	1,491000056E0	-6,979500055E-1	1,732950091E0
2,156808422E1	1,588950038E0	-8,470500112E-1	2,047049999E0
2,158824606E1	3,000000119E-2	1,318950057E0	5,212050438E0
2,160840852E1	-6,213000298E0	8,356050491E0	1,242600060E1
2,162857069E1	-1,009695053E1	1,143000031E1	1,717395020E1
2,164873285E1	-6,012000084E0	8,377950668E0	1,149405098E1
2,166889502E1	1,363950014E0	5,956950188E0	1,867050052E0
2,168905716E1	4,633950233E0	4,339050293E0	-4,620000124E-1
2,170921931E1	2,130000114E0	3,685050249E0	6,009000301E0
2,172938147E1	5,899500251E-1	2,824950218E0	1,424595070E1
2,174954362E1	9,019500613E-1	1,693050027E0	1,911300087E1
2,176970580E1	1,744050026E0	1,245000005E0	1,726500130E1
2,178986805E1	3,765000105E0	5,820000172E-1	1,098705006E1
2,181003021E1	4,122000217E0	7,639500499E-1	7,270950317E0
2,183019237E1	2,230050087E0	2,767950058E0	6,619950294E0
2,185035474E1	-4,669500291E-1	5,317950249E0	7,435950279E0
2,187051665E1	-1,300050020E0	6,297000408E0	7,732950211E0
2,189067903E1	-6,420000196E-1	6,031050205E0	7,656000137E0
2,191084118E1	1,189050078E0	4,260000229E0	8,305050850E0
2,193100335E1	2,439000130E0	2,767950058E0	9,495000839E0
2,195116550E1	1,548000097E0	2,536050081E0	1,014705086E1
2,197132774E1	-3,660000265E-1	3,646950245E0	1,053405094E1
2,199148989E1	-1,588050127E0	3,888000250E0	1,101795006E1
2,201165207E1	-1,579950094E0	3,085950136E0	1,060095024E1
2,203181423E1	-1,396050096E0	2,185950041E0	9,379950523E0
2,205197637E1	-1,462950110E0	2,017950058E0	9,382950783E0
2,207213877E1	-9,000000358E-1	1,839000106E0	1,020600033E1
2,209230092E1	-4,500000179E-1	2,731950045E0	9,876000404E0
2,211246306E1	-4,620000124E-1	3,718050241E0	9,301050186E0
2,213262522E1	-7,140000463E-1	4,783950329E0	9,196050644E0
2,215278734E1	-7,690500617E-1	5,584050179E0	8,956950188E0
2,217294951E1	-5,650500059E-1	6,124950409E0	8,125950813E0
2,219311167E1	1,069500074E-1	5,437050343E0	7,636950493E0
2,221327391E1	1,420950055E0	4,312050343E0	6,310950279E0
2,223343601E1	2,250000000E0	3,175050259E0	6,486000538E0
2,225359823E1	1,744050026E0	3,634950161E0	8,230950356E0
2,227376038E1	1,234050035E0	4,606950283E0	1,126200008E1
2,229392251E1	6,690000296E-1	5,368050098E0	1,369005108E1
2,231408487E1	1,966950059E0	3,910050154E0	1,181295013E1
2,233424702E1	1,969050050E0	3,381000042E0	7,831050396E0
2,235440917E1	1,471050024E0	3,436050177E0	6,889950275E0
2,237457133E1	1,548000097E0	3,247050047E0	7,671000481E0
2,239473349E1	7,410000563E-1	4,341000080E0	9,229050636E0
2,241489563E1	1,050000072E0	4,894050121E0	1,100100040E1
2,243505780E1	2,106000185E0	4,597050190E0	1,281405067E1
2,245522004E1	2,898000240E0	2,883000135E0	1,126005077E1
2,247538218E1	2,299950123E0	2,530950069E0	7,315950394E0
2,249554430E1	8,509500623E-1	2,920950174E0	5,338950157E0
2,251570670E1	-2,149950027E0	4,663950443E0	6,877950191E0
2,253586883E1	-4,393949986E0	5,755950451E0	9,067049980E0
2,255603100E1	-2,995050192E0	4,552050114E0	8,935050011E0
2,257619318E1	-7,159500122E-1	2,362950087E0	7,467000484E0
2,259635533E1	7,990500331E-1	1,048950076E0	5,362950325E0
2,261651749E1	1,383000016E0	1,303050041E0	4,491000175E0
2,263667964E1	7,870500088E-1	3,484050274E0	7,141950130E0
2,265684180E1	-1,024950027E0	6,115050316E0	1,408500099E1
2,267700402E1	-1,050000042E-1	6,043050289E0	1,613205147E1
2,269716640E1	2,463000059E0	4,117949963E0	1,076400089E1
2,271732832E1	3,814950228E0	3,486000061E0	6,699000359E0
2,273749048E1	2,745000124E0	3,298950195E0	7,029000282E0
2,275765286E1	1,558050036E0	3,610950232E0	7,759050369E0
2,277781480E1	1,467000127E0	4,152000427E0	9,082950592E0
2,279797719E1	1,312950015E0	5,095050335E0	1,153005028E1
2,281813935E1	1,696050048E0	5,160000324E0	1,308000088E1
2,283830150E1	2,158950090E0	3,880950212E0	1,138695049E1
2,285846366E1	1,596000075E0	3,040950060E0	6,687000275E0
2,287862583E1	-3,000000026E-3	3,295050144E0	4,072050095E0
2,289878806E1	-2,617050171E0	5,014050007E0	4,659000397E0
2,291895020E1	-4,972950459E0	7,501050472E0	7,627950191E0
2,293911235E1	-2,706000090E0	5,737050056E0	9,346950531E0
2,295927451E1	6,430500150E-1	2,751000166E0	7,882050514E0
2,297943668E1	2,487000227E0	8,550000191E-1	6,760950089E0
2,299959907E1	2,146950006E0	1,357950091E0	7,351950169E0
2,301976122E1	4,200000167E-1	4,177950382E0	1,016595078E1
2,303992315E1	-1,747950077E0	6,844950199E0	1,324200058E1
2,306008554E1	-4,069500268E-1	6,334950447E0	1,218900013E1
2,308024769E1	1,347000122E0	4,707000256E0	8,334000587E0
2,310040991E1	1,014000058E0	4,297950268E0	6,771000385E0
2,312057197E1	9,640500546E-1	3,726000071E0	7,269000530E0
2,314073413E1	1,360950112E0	2,823000193E0	7,411950588E0
2,316089629E1	1,428000093E0	2,872950077E0	7,558050156E0
2,318105849E1	1,608000040E0	3,364050150E0	9,184050560E0
2,320122065E1	1,917000055E0	3,826050282E0	1,194495010E1
2,322138278E1	1,375950098E0	4,779000282E0	1,298400021E1
2,324154517E1	1,230000019E0	4,741050243E0	1,133895016E1
2,326170710E1	1,549950123E0	3,454950094E0	8,425050735E0
2,328186948E1	6,859500408E-1	3,172050238E0	5,724000454E0
2,330203162E1	-6,439500451E-1	3,196050167E0	5,374950409E0
2,332219386E1	-1,888950109E0	3,622950077E0	6,820950508E0
2,334235593E1	-2,800950050E0	4,864950180E0	9,331950188E0
2,336251809E1	-1,282950044E0	4,221000195E0	1,034505081E1
2,338268032E1	1,203000069E0	2,236050129E0	9,234000206E0
2,340284240E1	2,127000093E0	1,792950034E0	7,612950325E0
2,342300462E1	9,090000391E-1	3,639000177E0	8,128050804E0
2,344316677E1	-1,141950011E0	6,223050117E0	1,051500034E1
2,346332890E1	-2,454000235E0	8,113950729E0	1,236405087E1
2,348349105E1	-6,319500208E-1	6,477000237E0	1,152795029E1
2,350365344E1	2,922000170E0	3,277950048E0	7,768950462E0
2,352381560E1	3,460950136E0	2,104950190E0	7,246950150E0
2,354397777E1	3,322050095E0	1,425000072E0	7,735050201E0
2,356413993E1	1,974000096E0	2,169000149E0	9,028050423E0
2,358430217E1	-7,830000520E-1	4,887000084E0	1,196595097E1
2,360446431E1	-1,627950072E0	6,052950382E0	1,350300026E1
2,362462648E1	3,289500177E-1	4,654950142E0	1,069200039E1
2,364478863E1	2,211000204E0	2,634000063E0	6,196050167E0
2,366495078E1	2,725950241E0	1,702050090E0	5,032050133E0
2,368511296E1	1,831050038E0	2,068950176E0	6,796950340E0
2,370527534E1	1,500000060E-1	4,056000233E0	9,720000267E0
2,372543726E1	-5,479500294E-1	5,437050343E0	1,170000076E1
2,374559933E1	4,270500243E-1	5,193000317E0	1,155405045E1
2,376576157E1	1,396950126E0	4,615950108E0	1,004595089E1
2,378592374E1	1,888050079E0	4,056000233E0	7,479000568E0
2,380608591E1	9,930000305E-1	4,078050137E0	5,461050034E0
2,382624806E1	-5,440500379E-1	4,999050140E0	5,965950489E0
2,384641044E1	-1,554000020E0	5,643000126E0	7,162950516E0
2,386657258E1	-2,089950085E0	6,658950329E0	8,752950668E0
2,388673473E1	-3,160500228E-1	5,437050343E0	9,493050575E0
2,390689696E1	1,675050020E0	3,940950155E0	9,744000435E0
2,392705914E1	2,929050207E0	2,629050016E0	9,262950897E0
2,394722129E1	3,010950089E0	2,293950081E0	8,635950089E0
2,396738343E1	1,387950063E0	3,424050093E0	9,220050812E0
2,398754561E1	-6,510000229E-1	5,008950233E0	1,071900082E1
2,400770797E1	-8,980500698E-1	4,779000282E0	1,114995098E1
2,402786982E1	1,110000089E-1	3,084000111E0	9,688950539E0
2,404803205E1	6,930000186E-1	2,032950163E0	8,530050278E0
2,406819421E1	1,174050093E0	1,381950021E0	7,993950367E0
2,408835660E1	1,218000054E0	1,273950100E0	8,017950058E0
2,410851853E1	3,220500052E-1	2,176050186E0	9,157950401E0
2,412868090E1	-8,620500565E-1	3,481050253E0	1,021395016E1
2,414884305E1	-7,759500146E-1	3,939000130E0	9,850050926E0
2,416900521E1	8,700000495E-2	3,558000088E0	8,748000145E0
2,418916738E1	1,620000005E-1	3,924000263E0	8,248050690E0
2,420932952E1	-1,440000087E-1	4,609050274E0	8,620950699E0
2,422949168E1	-1,939500123E-1	5,098050117E0	9,058950424E0
2,424965382E1	4,780500233E-1	4,863000393E0	9,105000496E0
2,426981604E1	1,225050092E0	4,294950008E0	9,184050560E0
2,428997814E1	2,119950056E0	3,061950207E0	8,959050179E0
2,431014035E1	2,134950161E0	2,602950096E0	9,094950676E0
2,433030251E1	1,165050030E0	3,040950060E0	1,026405048E1
2,435046466E1	3,480000198E-1	3,529050112E0	1,085505009E1
2,437062681E1	1,450500041E-1	3,529050112E0	9,841950417E0
2,439078898E1	3,079500198E-1	3,364050150E0	8,463000298E0
2,441095114E1	6,379500031E-1	3,156000137E0	7,668000221E0
2,443111352E1	8,509500623E-1	3,096000195E0	7,656000137E0
2,445127569E1	1,179000020E0	2,584050179E0	7,747050285E0
2,447143785E1	1,255950093E0	2,880000114E0	8,650050163E0
2,449160000E1	7,480500340E-1	3,450000048E0	9,727950096E0
2,451176216E1	2,719500065E-1	3,831000090E0	9,466950417E0
2,453192430E1	-9,105000645E-2	3,843000174E0	8,569050789E0
2,455208646E1	-4,170000255E-1	3,876000166E0	8,893950462E0
2,457224870E1	-7,969500422E-1	3,802050114E0	9,780000687E0
2,459241077E1	-9,510000348E-1	3,562950134E0	1,006995010E1
2,461257299E1	-6,150000095E-1	2,971050024E0	9,265050888E0
2,463273515E1	2,860500216E-1	2,241000175E0	8,286000252E0
2,465289731E1	5,329500437E-1	2,245950222E0	8,973000526E0
2,467305945E1	7,459500432E-1	2,572050095E0	1,021395016E1
2,469322162E1	1,708050132E0	2,287050009E0	9,847050667E0
2,471338376E1	2,103000164E0	2,703000069E0	1,027305031E1
2,473354612E1	2,400000095E0	2,986050129E0	1,120200062E1
2,475370806E1	2,949000120E0	2,227050066E0	1,015800095E1
2,477387020E1	2,616000175E0	1,927050114E0	7,735050201E0
2,479403255E1	1,840050101E0	2,398950100E0	7,048050404E0
2,481419469E1	6,930000186E-1	3,414000273E0	8,571000099E0
2,483435685E1	2,839500010E-1	3,508050203E0	9,739050865E0
2,485451898E1	1,444950104E0	2,377950191E0	8,551950455E0
2,487468114E1	1,597950101E0	2,143050194E0	9,082950592E0
2,489484337E1	3,769500256E-1	2,950050116E0	1,152600098E1
2,491500545E1	-3,000000026E-3	2,923050165E0	1,253400040E1
2,493516762E1	2,190000117E-1	1,963050127E0	9,841950417E0
2,495532977E1	-1,200000048E-1	2,229000092E0	6,832950115E0
2,497549202E1	-1,105949998E0	3,301950216E0	8,164050102E0
2,499565417E1	-1,659000039E0	4,738050461E0	1,177905083E1
2,501581635E1	6,499500275E-1	2,944950104E0	1,078305054E1
2,503597851E1	2,800050020E0	1,675950050E0	6,732000351E0
2,505614069E1	2,458050013E0	2,416050196E0	6,772950172E0
2,507630283E1	1,306050062E0	3,939000130E0	1,043400097E1
2,509646502E1	7,890000343E-1	4,719000340E0	1,215495014E1
2,511662716E1	1,312950015E0	5,136000156E0	1,092495060E1
2,513678933E1	2,446050167E0	3,868950129E0	9,439949989E0
2,515695170E1	2,640000105E0	2,955000162E0	8,025000572E0
2,517711361E1	1,561950088E0	3,120000124E0	8,214000702E0
2,519727606E1	9,490500689E-1	2,875950098E0	7,728000164E0
2,521743814E1	2,689500153E-1	3,169950247E0	7,996050358E0
2,523760029E1	-1,905000024E-2	3,445050240E0	9,507000923E0
2,525776244E1	8,080500364E-1	2,554950237E0	1,008195019E1
2,527792458E1	1,378050089E0	2,275050163E0	9,997950554E0
2,529808673E1	1,786950111E0	1,948950052E0	9,732000351E0
2,531824887E1	1,717950106E0	1,840950131E0	9,325050354E0
2,533841102E1	8,059500456E-1	2,409000158E0	8,643000603E0
2,535857319E1	5,040000081E-1	2,767950058E0	8,095050812E0
2,537873532E1	4,110000134E-1	3,358950138E0	9,141000748E0
2,539889757E1	1,380000114E-1	3,718050241E0	1,034505081E1
2,541905962E1	8,680500388E-1	2,895000219E0	9,142950058E0
2,543922180E1	2,034000158E0	1,738050103E0	6,952950478E0
2,545938404E1	2,083950043E0	1,369950056E0	7,126950264E0
2,547954619E1	1,558050036E0	1,968000054E0	9,037950516E0
2,549970835E1	1,102950096E0	3,369000196E0	1,197105026E1
2,551987049E1	1,483050108E0	3,939000130E0	1,303395081E1
2,554003265E1	2,412000179E0	3,390000105E0	1,138905048E1
2,556019503E1	3,229050159E0	2,551950216E0	8,347949982E0
2,558035696E1	2,989050150E0	1,662000060E0	7,264050484E0
2,560051934E1	2,271000147E0	1,659000039E0	6,985950470E0
2,562068128E1	9,810000658E-1	3,007050037E0	8,715000153E0
2,564084368E1	-5,505000427E-2	3,742050171E0	1,124505043E1
2,566100583E1	-1,290000081E-1	3,342000246E0	1,099200058E1
2,568116798E1	1,141050100E0	2,370000124E0	8,293050766E0
2,570133021E1	2,122950077E0	1,717050076E0	7,293000221E0
2,572149229E1	1,273050070E0	2,422950029E0	1,082895088E1
2,574165443E1	-1,164000034E0	4,207050323E0	1,357305050E1
2,576181657E1	-1,588050127E0	4,855950356E0	1,068495083E1
2,578197875E1	3,000000119E-2	3,661050081E0	6,595950127E0
2,580214089E1	1,582050085E0	2,290950060E0	5,530050278E0
2,582230312E1	1,906950116E0	1,755000114E0	7,636950493E0
2,584246517E1	1,383000016E0	2,341950178E0	1,129605007E1
2,586262734E1	1,119000077E0	2,964000225E0	1,288995075E1
2,588278949E1	8,920500278E-1	3,594000101E0	1,202595043E1
2,590295164E1	1,954950094E0	2,979000092E0	9,136050224E0
2,592311378E1	2,539050102E0	2,311050177E0	7,429050446E0
2,594327593E1	2,119950056E0	2,476050138E0	8,296050072E0
2,596343818E1	1,270050049E0	3,457050085E0	1,046700096E1
2,598360033E1	9,330000281E-1	4,288050175E0	1,145895100E1
2,600376250E1	2,362050056E0	2,253000021E0	7,975050449E0
2,602392487E1	3,226050138E0	9,550500512E-1	4,618050098E0
2,604408703E1	2,335950136E0	1,603950024E0	5,344050407E0
2,606424894E1	3,030000031E-1	4,048950195E0	1,145100021E1
2,608441133E1	-1,156949997E0	6,076950073E0	1,572495079E1
2,610457347E1	9,160500169E-1	4,176000118E0	1,163295078E1
2,612473563E1	3,643050194E0	1,273950100E0	4,644000053E0
2,614489780E1	3,507000208E0	5,580000281E-1	2,815050125E0
2,616505996E1	1,396950126E0	1,618950129E0	6,079050064E0
2,618522210E1	-2,023050070E0	5,160000324E0	1,180095100E1
2,620538426E1	-2,749050140E0	6,477000237E0	1,391295052E1
2,622554642E1	3,169500232E-1	4,188000202E0	1,030200005E1
2,624570859E1	2,874000072E0	1,920000076E0	6,591000080E0
2,626587050E1	2,815050125E0	1,396050096E0	6,960000515E0
2,628603288E1	7,909500599E-1	2,866050243E0	1,118295097E1
2,630619503E1	-1,437000036E0	5,140950203E0	1,410900021E1
2,632635717E1	-9,529500604E-1	5,059050083E0	1,129305077E1
2,634651933E1	8,059500456E-1	3,685050249E0	7,233000278E0
2,636668125E1	1,540950060E0	2,979000092E0	6,021000385E0
2,638684365E1	1,929000139E0	2,835000038E0	7,483950138E0
2,640700588E1	2,050950050E0	3,016950130E0	9,411000252E0
2,642716796E1	2,332950115E0	3,285000086E0	1,030005074E1
2,644733020E1	2,605950117E0	3,052950144E0	1,036695004E1
2,646749235E1	2,002950191E0	2,856000185E0	9,736950874E0
2,648765450E1	1,129050016E0	2,871000051E0	9,355950356E0
2,650781665E1	7,459500432E-1	2,670000076E0	9,190950394E0
2,652797879E1	1,900500059E-1	2,470950127E0	9,124050140E0
2,654814093E1	-5,700000525E-1	2,682000160E0	8,887050629E0
2,656830306E1	-3,040500283E-1	2,469000101E0	8,101950645E0
2,658846515E1	5,850000381E-1	1,803000093E0	6,961950302E0
2,660862729E1	8,749500513E-1	1,975050092E0	6,735000134E0
2,662878943E1	4,060500264E-1	2,890050173E0	8,166000366E0
2,664895165E1	-1,270500124E-1	4,318950176E0	1,100595093E1
2,666911381E1	3,679500222E-1	4,510950089E0	1,215300083E1
2,668927588E1	1,840050101E0	3,498000145E0	1,080300045E1
2,670943811E1	2,932050228E0	2,527950048E0	9,325050354E0
2,672960028E1	2,725950241E0	2,152950048E0	8,431950569E0
2,674976244E1	1,399950027E0	3,321000099E0	9,019050598E0
2,676992459E1	7,720500231E-1	4,758000374E0	1,102995014E1
2,679008674E1	1,548000097E0	4,827000141E0	1,174095058E1
2,681024891E1	2,680050135E0	2,976000071E0	1,010595036E1
2,683041106E1	2,862000227E0	2,208000183E0	7,933950424E0
2,685057323E1	2,127000093E0	2,287050009E0	8,226000786E0
2,687073539E1	6,190500259E-1	2,842050076E0	9,307950020E0
2,689089756E1	-6,510000229E-1	3,811950207E0	8,554050446E0
2,691105971E1	-1,698000073E0	4,726050377E0	7,776000500E0
2,693122188E1	-1,384050012E0	5,038050175E0	8,751000404E0
2,695138404E1	1,110000014E0	3,247050047E0	9,112050056E0
2,697154622E1	9,640500546E-1	2,860950232E0	9,249000549E0
2,699170861E1	8,820000291E-1	2,779950142E0	6,763050556E0
2,701187078E1	8,989500403E-1	3,100950241E0	7,551000595E0
2,703203270E1	6,880500317E-1	4,645050049E0	1,160205078E1
2,705219486E1	1,785000086E0	3,940950155E0	1,365705109E1
2,707235725E1	3,238050222E0	1,966050148E0	1,098900032E1
2,709251939E1	3,811050177E0	1,276050091E0	7,981950283E0
2,711268130E1	2,463000059E0	2,533050060E0	9,208050728E0
2,713284346E1	2,809500098E-1	4,366950035E0	1,166400051E1
2,715300562E1	1,492950082E0	1,839000106E0	7,879050255E0
2,717316798E1	1,936050057E0	7,140000463E-1	5,904000282E0
2,719332992E1	-1,905000024E-2	2,410950184E0	7,987050533E0
2,721349206E1	-2,920950174E0	6,028950214E0	1,456905079E1
2,723365422E1	-1,630500108E-1	2,143050194E0	1,228200054E1
2,725381636E1	2,601000071E0	-4,830000103E-1	4,354950428E0
2,727397874E1	2,448000193E0	6,870000362E-1	1,719000101E0
2,729414088E1	8,560500145E-1	2,293950081E0	6,991050243E0
2,731430302E1	-1,674000025E0	5,440050125E0	1,518195057E1
2,733446517E1	-5,820000172E-1	5,445000172E0	1,304595089E1
2,735462708E1	2,344950199E0	3,498000145E0	7,189950466E0
2,737478924E1	3,130950212E0	3,133950233E0	5,662050247E0
2,739495162E1	1,938000083E0	3,244050264E0	9,118950844E0
2,741511376E1	1,114950061E0	2,809050083E0	1,057995033E1
2,743527593E1	1,759500057E-1	3,808950186E0	1,094400024E1
2,745543807E1	-1,051050067E0	4,846050262E0	1,179405022E1
2,747560021E1	1,710000038E-1	2,962050200E0	1,012305069E1
2,749576236E1	1,027950048E0	1,417050123E0	7,446000576E0
2,751592453E1	8,610000610E-1	2,167050123E0	7,345050335E0
2,753608677E1	2,890500128E-1	3,280050039E0	8,956950188E0
2,755624886E1	2,449500114E-1	4,426949978E0	1,064505005E1
2,757641104E1	1,728000045E0	3,964950085E0	9,973950386E0
2,759657318E1	2,724000216E0	3,241950035E0	8,692950249E0
2,761673533E1	3,217050076E0	2,323050022E0	8,095050812E0
2,763689750E1	2,332950115E0	2,229000092E0	9,037950516E0
2,765705969E1	6,690000296E-1	3,484050274E0	1,066605091E1
2,767722192E1	-2,850000262E-1	4,096950054E0	1,128105068E1
2,769738406E1	-6,750000119E-1	3,903000116E0	1,058205032E1
2,771754615E1	-2,830500007E-1	2,890050173E0	9,013950348E0
2,773770829E1	5,040000081E-1	1,449000120E0	6,823050499E0
2,775787048E1	3,289500177E-1	1,413000107E0	7,123050213E0
2,777803262E1	-3,690000176E-1	2,236050129E0	9,031050682E0
2,779819475E1	-4,620000124E-1	3,175050259E0	1,020405006E1
2,781835690E1	2,770500183E-1	3,763950109E0	9,900000572E0
2,783851912E1	1,158000112E0	4,173000336E0	1,003395081E1
2,785868122E1	2,604000092E0	3,642000198E0	9,688950539E0
2,787884336E1	2,944050074E0	3,898050070E0	1,018200016E1
2,789900558E1	2,247000217E0	4,159049988E0	1,014195061E1
2,791916774E1	1,660950065E0	4,069950104E0	9,025950432E0
2,793932990E1	2,068050146E0	2,253000021E0	7,132050514E0
2,795949204E1	1,323000073E0	2,392050028E0	7,378950119E0
2,797965413E1	-1,150500029E-1	3,526950121E0	9,529050827E0
2,799981638E1	-7,639500499E-1	4,288050175E0	1,113300037E1
2,801997877E1	2,020500153E-1	4,015050411E0	1,038600063E1
2,804014071E1	1,699050069E0	2,634000063E0	8,197950363E0
2,806030286E1	2,050950050E0	2,023050070E0	6,976050377E0
2,808046501E1	6,240000129E-1	3,301950216E0	8,365050316E0
2,810062741E1	-8,239500523E-1	5,125950336E0	1,058895016E1
2,812078933E1	-4,740000367E-1	5,245950222E0	1,044795036E1
2,814095170E1	1,351950049E0	3,249000072E0	8,566050529E0
2,816111383E1	2,175000191E0	1,602000117E0	7,005000114E0
2,818127598E1	1,033050060E0	2,308050156E0	8,206950188E0
2,820143792E1	-8,839500546E-1	4,702050209E0	1,060905075E1
2,822160031E1	-1,164000034E0	5,332050323E0	1,063995075E1
2,824176245E1	5,110500455E-1	3,771000147E0	8,513999939E0
2,826192460E1	1,737000108E0	2,464050055E0	7,407000542E0
2,828208677E1	1,492950082E0	2,904000044E0	8,473050117E0
2,830224894E1	9,370500445E-1	4,161000252E0	9,897000313E0
2,832241115E1	1,279950023E0	4,417950153E0	1,001205063E1
2,834257298E1	1,584000111E0	4,078050137E0	9,736950874E0
2,836273535E1	2,238000154E0	3,441000223E0	8,854050636E0
2,838289750E1	1,771050096E0	3,105000257E0	8,928000450E0
2,840305966E1	9,829500318E-1	3,058050156E0	8,314949989E0
2,842322181E1	4,440000355E-1	3,184050083E0	7,768950462E0
2,844338398E1	6,499500275E-1	3,012000084E0	7,539000511E0
2,846354615E1	1,294050097E0	2,497050047E0	7,297050476E0
2,848370839E1	1,323000073E0	2,679000139E0	8,286000252E0
2,850387053E1	7,669500113E-1	3,979050159E0	1,104705048E1
2,852403268E1	1,024049997E0	4,389000416E0	1,254105091E1
2,854419483E1	2,038950205E0	3,024000168E0	1,180095100E1
2,856435700E1	1,849950075E0	2,092950106E0	8,881950378E0
2,858451915E1	7,840500474E-1	2,991000175E0	6,909000397E0
2,860468129E1	-4,890000224E-1	4,875000000E0	7,648950577E0
2,862484343E1	-9,430500269E-1	5,569050312E0	9,921000481E0
2,864500558E1	-1,530000120E-1	4,285950184E0	9,409049988E0
2,866516774E1	1,312950015E0	3,556050062E0	7,486050129E0
2,868532990E1	2,038950205E0	3,574950218E0	7,510050297E0
2,870549196E1	1,455000043E0	4,279050350E0	9,543000221E0
2,872565410E1	8,370000124E-1	4,888950348E0	1,084305096E1
2,874581626E1	4,510500133E-1	4,923000336E0	1,036005020E1
2,876597838E1	1,980000138E-1	4,852950096E0	9,289050102E0
2,878614054E1	6,120000482E-1	4,141950130E0	8,743050575E0
2,880630268E1	1,648950100E0	2,401950121E0	7,357050419E0
2,882646484E1	1,399950027E0	2,440050125E0	7,089000225E0
2,884662701E1	2,839500010E-1	4,189949989E0	8,664000511E0
2,886678917E1	9,195000678E-2	5,667000294E0	1,117095089E1
2,888695142E1	1,672050118E0	4,465050220E0	1,185600090E1
2,890711357E1	3,114000082E0	2,023050070E0	9,466950417E0
2,892727573E1	2,752050161E0	1,930050135E0	7,510050297E0
2,894743788E1	1,147950053E0	3,180000067E0	7,927050591E0
2,896760006E1	3,495000303E-2	4,185000420E0	8,142000198E0
2,898776222E1	1,380000114E-1	4,068000317E0	7,810050488E0
2,900792437E1	1,402050018E0	3,091050148E0	7,483950138E0
2,902808647E1	8,560500145E-1	3,784950256E0	9,193950653E0
2,904824871E1	2,070000172E-1	4,774050236E0	1,043400097E1
2,906841087E1	4,249500334E-1	4,342950344E0	9,838050842E0
2,908857296E1	1,435050011E0	3,244050264E0	7,696950436E0
2,910873513E1	1,359000087E0	3,060000181E0	7,029000282E0
2,912889730E1	3,820500076E-1	4,504050255E0	8,992050171E0
2,914905953E1	1,950000077E-1	5,275050163E0	1,109205055E1
2,916922160E1	1,615050077E0	3,936000109E0	1,016295052E1
2,918938375E1	2,347950220E0	2,751000166E0	8,298000336E0
2,920954589E1	1,708050132E0	3,235050201E0	8,359950066E0
2,922970804E1	5,329500437E-1	3,667950153E0	8,860950470E0
2,924987020E1	-5,509500504E-1	5,092950344E0	9,547950745E0
2,927003235E1	4,369500279E-1	4,044000149E0	8,595000267E0
2,929019448E1	1,378050089E0	2,823000193E0	7,965000153E0
2,931035665E1	1,414050102E0	2,752950191E0	8,836950302E0
2,933051880E1	1,359000087E0	3,205950260E0	9,646050453E0
2,935068093E1	1,339950085E0	3,994050264E0	1,037400055E1
2,937084288E1	1,864050031E0	3,891000271E0	1,004595089E1
2,939100502E1	2,458050013E0	2,677050114E0	9,031050682E0
2,941116717E1	1,347000122E0	2,944950104E0	8,317049980E0
2,943132930E1	9,000000358E-2	4,260000229E0	8,728950500E0
2,945149169E1	-4,690500200E-1	4,987050056E0	9,127050400E0
2,947165362E1	5,380499959E-1	4,197000027E0	8,101950645E0
2,949181576E1	1,524000049E0	2,986050129E0	6,904950142E0
2,951197791E1	1,366050124E0	2,944950104E0	7,357050419E0
2,953214008E1	4,395000264E-2	4,558950424E0	9,699000359E0
2,955230223E1	-8,205000311E-2	5,208000183E0	1,137195015E1
2,957246461E1	8,029500246E-1	4,212000370E0	1,067100048E1
2,959262653E1	1,773000121E0	2,821050167E0	8,824950218E0
2,961278870E1	1,572000027E0	2,928000212E0	8,566050529E0
2,963295084E1	9,250500202E-1	4,044000149E0	9,814050674E0
2,965311301E1	8,629500270E-1	4,173000336E0	1,085505009E1
2,967327518E1	1,837950110E0	3,181950092E0	9,945000648E0
2,969343731E1	2,022000074E0	2,586000204E0	8,571000099E0
2,971359947E1	1,644000053E0	2,394000053E0	7,054950237E0
2,973376165E1	1,186050057E0	2,665050030E0	6,723000526E0
2,975392378E1	6,310500503E-1	3,421950102E0	7,471950531E0
2,977408594E1	4,150500298E-1	4,051050186E0	8,550000191E0
2,979424801E1	1,780500114E-1	4,939050198E0	1,050300026E1
2,981441022E1	8,440500498E-1	4,687950134E0	1,154205036E1
2,983457231E1	2,383949995E0	2,653050184E0	9,840000153E0
2,985473447E1	2,071950197E0	2,458950043E0	7,798050404E0
2,987489660E1	2,550000250E-1	4,165950298E0	8,004000664E0
2,989505876E1	-1,055999994E0	6,049950123E0	9,426000595E0
2,991522090E1	-8,550000191E-1	5,830050468E0	9,844950676E0
2,993538304E1	1,024049997E0	4,116000175E0	8,437050819E0
2,995554520E1	1,945050120E0	3,088950157E0	7,989000320E0
2,997570734E1	2,086950064E0	2,730000019E0	9,172050476E0
2,999586947E1	1,591050029E0	3,058050156E0	1,015605068E1
3,001603165E1	1,396950126E0	3,511950254E0	1,008195019E1
3,003619379E1	1,432950020E0	3,445050240E0	9,354000092E0
3,005635596E1	8,340000510E-1	3,517050266E0	8,620950699E0
3,007651814E1	1,830000132E-1	3,919950247E0	8,233050346E0
3,009668006E1	1,054949999E0	3,663000107E0	7,939050198E0
3,011684223E1	1,450050116E0	3,577050209E0	9,457050323E0
3,013700438E1	1,996050119E0	2,974050045E0	9,349050522E0
3,015716654E1	1,926000118E0	2,788950205E0	8,854050636E0
3,017732870E1	1,255950093E0	3,376050234E0	9,282000542E0
3,019749109E1	2,959500253E-1	4,611000061E0	1,040700054E1
3,021765302E1	3,390000165E-1	4,639950275E0	1,061595058E1
3,023781517E1	1,129050016E0	3,433050156E0	8,820000648E0
3,025797732E1	1,155000091E0	3,169950247E0	7,081950188E0
3,027813948E1	8,989500403E-1	3,091050148E0	6,319950104E0
3,029830161E1	8,460000157E-1	3,265950203E0	6,771000385E0
3,031846377E1	4,150500298E-1	4,345950127E0	9,115050316E0
3,033862591E1	3,049500287E-1	5,742000103E0	1,215105057E1
3,035878808E1	1,584000111E0	5,086050034E0	1,238805103E1
3,037895022E1	3,316950083E0	3,076950073E0	8,611950874E0
3,039911228E1	2,992050171E0	3,024000168E0	5,511000156E0
3,041927442E1	3,889500201E-1	5,119050026E0	7,477050304E0
3,043943659E1	-4,410000145E-1	6,406950474E0	1,027095032E1
3,045959882E1	1,242000103E0	4,819950104E0	1,028805065E1
3,047976097E1	2,932050228E0	2,823000193E0	8,985000610E0
3,049992312E1	3,222000122E0	1,566000104E0	7,825950146E0
3,052008521E1	2,269050121E0	2,020950079E0	7,791000366E0
3,054024735E1	4,590000212E-1	3,598950148E0	9,712950706E0
3,056040951E1	1,690500081E-1	3,856950283E0	1,060905075E1
3,058057168E1	8,029500246E-1	3,036000252E0	9,519000053E0
3,060073392E1	1,651050091E0	1,819950104E0	8,037000656E0
3,062089599E1	1,783050060E0	1,175999999E0	7,546050549E0
3,064105815E1	9,330000281E-1	2,257950068E0	8,346000671E0
3,066122030E1	-5,050500035E-1	4,501049995E0	1,034505081E1
3,068138245E1	-4,530000091E-1	5,530950069E0	1,183005047E1
3,070154461E1	9,019500613E-1	4,540050030E0	1,058700085E1
3,072170677E1	1,765950084E0	3,442950249E0	7,269000530E0
3,074186893E1	1,090950012E0	3,787950277E0	5,686050415E0
3,076203107E1	-3,330000043E-1	5,488050461E0	7,144050121E0
3,078219323E1	-8,359500170E-1	6,916950226E0	1,019400024E1
3,080235515E1	1,549950123E0	5,278950214E0	1,132395077E1
3,082251753E1	3,456000090E0	2,761050224E0	1,033605003E1
3,084267967E1	3,736050129E0	1,393950105E0	9,814050674E0
3,086284182E1	2,664000034E0	1,252050042E0	1,016805077E1
3,088300398E1	4,849500358E-1	2,823000193E0	1,073295021E1
3,090316611E1	-3,880500197E-1	3,771000147E0	9,945000648E0
3,092332826E1	7,095000148E-2	3,946050167E0	8,650050163E0
3,094349018E1	1,249050021E0	3,199050188E0	7,606050491E0
3,096365256E1	2,683050156E0	2,014050007E0	6,700950146E0
3,098381472E1	2,223000050E0	2,493000031E0	7,158000469E0
3,100397686E1	9,949500561E-1	4,200000286E0	9,406949997E0
3,102413901E1	6,599999964E-2	5,986050129E0	1,159995079E1
3,104430116E1	5,879999995E-1	5,563950062E0	1,080705070E1
3,106446331E1	1,455000043E0	3,931050301E0	7,699950218E0
3,108462548E1	1,225050092E0	3,450000048E0	5,961000443E0
3,110478762E1	1,900500059E-1	4,276050091E0	7,474050522E0
3,112494977E1	-1,108950019E0	5,635950089E0	1,036905003E1
3,114511171E1	-9,580500722E-1	5,622000217E0	1,079505062E1
3,116527387E1	5,279999971E-1	4,449000359E0	9,399000168E0
3,118543602E1	1,455000043E0	3,381000042E0	8,635950089E0
3,120559816E1	2,034000158E0	2,866050243E0	8,929950714E0
3,122576033E1	2,946000099E0	2,269950151E0	8,599950790E0
3,124592242E1	3,352950096E0	2,305950165E0	8,461050034E0
3,126608459E1	2,941050053E0	3,072000027E0	8,935050011E0
3,128624675E1	2,700000048E0	3,919950247E0	9,943050385E0
3,130640891E1	2,367000103E0	3,747000217E0	9,615000725E0
3,132657106E1	1,837950110E0	3,418950081E0	8,274000168E0
3,134673321E1	1,531050086E0	2,935050249E0	7,354950428E0
3,136689544E1	1,585950017E0	2,196000099E0	6,651000500E0
3,138705759E1	4,710000157E-1	2,863950253E0	7,419000149E0
3,140721972E1	-9,000000358E-1	4,333950043E0	9,193950653E0
3,142738181E1	-1,282950044E0	5,041950226E0	1,026900005E1
3,144754396E1	-1,579500139E-1	4,576050282E0	9,937950134E0
3,146770611E1	1,644000053E0	3,060000181E0	9,394950867E0
3,148786834E1	2,293050051E0	2,458950043E0	9,672000885E0
3,150803042E1	2,223000050E0	2,923050165E0	9,961950302E0
3,152819235E1	2,115000010E0	3,085950136E0	9,109950066E0
3,154835473E1	1,854000092E0	3,714000225E0	9,190950394E0
3,156851667E1	1,831050038E0	3,960000277E0	1,019400024E1
3,158867881E1	1,540950060E0	4,149000168E0	1,117395020E1
3,160884119E1	1,665000081E0	2,752950191E0	9,832950592E0
3,162900310E1	1,636950135E0	1,633050084E0	6,996000290E0
3,164916527E1	5,059500337E-1	2,133000135E0	5,968050480E0
3,166932735E1	-1,135050058E0	3,667950153E0	7,197000504E0
3,168948960E1	-2,239050150E0	5,251050472E0	1,027605057E1
3,170965168E1	-5,959500074E-1	4,561050415E0	1,149000072E1
3,172981383E1	2,163000107E0	2,466000080E0	9,507000923E0
3,174997599E1	3,709950209E0	1,258950114E0	8,032050133E0
3,177013824E1	2,659050226E0	2,682000160E0	9,036000252E0
3,179030031E1	6,619500518E-1	5,050050259E0	1,157805061E1
3,181046247E1	4,039500058E-1	5,602950096E0	1,090995026E1
3,183062461E1	1,728000045E0	3,582000256E0	6,945000172E0
3,185078653E1	1,522050023E0	2,932950258E0	5,230950356E0
3,187094868E1	1,078950047E0	3,082050085E0	6,483000278E0
3,189111103E1	7,290000319E-1	3,876000166E0	8,875050545E0
3,191127317E1	9,040500522E-1	4,381950378E0	1,112805080E1
3,193143509E1	1,620000124E0	3,999000072E0	1,171500015E1
3,195159725E1	2,410050154E0	3,040950060E0	1,095105076E1
3,197175941E1	2,194050074E0	2,899950027E0	9,718050003E0
3,199192156E1	8,820000291E-1	3,666000128E0	9,115050316E0
3,201208373E1	-1,489500105E-1	5,208000183E0	8,104050636E0
3,203224587E1	3,820500076E-1	4,711950302E0	7,618050575E0
3,205240803E1	1,933050036E0	2,689050198E0	6,820950508E0
3,207257020E1	1,677000046E0	2,677050114E0	7,419000149E0
3,209273234E1	1,123950005E0	3,442950249E0	9,651000023E0
3,211289441E1	8,080500364E-1	4,024950027E0	1,132695007E1
3,213305657E1	3,870000243E-1	4,256999969E0	1,025205040E1
3,215321874E1	1,012050033E0	3,843000174E0	8,200050354E0
3,217338090E1	1,246050000E0	4,339050293E0	8,985000610E0
3,219354306E1	1,777950048E0	4,498950005E0	1,069200039E1
3,221370523E1	3,384000063E0	2,514000177E0	8,881950378E0
3,223386721E1	2,982000113E0	2,143050194E0	6,210000515E0
3,225402956E1	1,984050035E0	2,842050076E0	5,872950077E0
3,227419172E1	7,240500450E-1	4,594950199E0	9,246000290E0
3,229435362E1	4,320000112E-1	5,425950050E0	1,291200066E1
3,231451578E1	1,531050086E0	4,318950176E0	1,225605011E1
3,233467794E1	3,004050255E0	2,179050207E0	8,166000366E0
3,235484008E1	2,166000128E0	1,923000097E0	5,959050179E0
3,237500224E1	3,840000033E-1	3,390000105E0	6,838050365E0
3,239516439E1	-5,410500169E-1	5,245950222E0	1,030005074E1
3,241532648E1	1,429500133E-1	5,725050449E0	1,293795109E1
3,243548863E1	2,422049999E0	3,667950153E0	1,184400082E1
3,245565081E1	4,408950329E0	5,940000415E-1	7,635000229E0
3,247581294E1	4,404000282E0	5,295000225E-2	4,836000443E0
3,249597506E1	2,785950184E0	1,810050130E0	6,438000202E0
3,251613722E1	4,489500225E-1	4,666950226E0	1,200705051E1
3,253629937E1	-6,709500551E-1	5,686050415E0	1,458300114E1
3,255646151E1	1,294050097E0	3,862050295E0	1,050600052E1
3,257662367E1	2,515050173E0	2,095050097E0	5,521050453E0
3,259678559E1	1,789950132E0	2,821050167E0	4,879050255E0
3,261694774E1	4,110000134E-1	4,972950459E0	9,000000000E0
3,263710990E1	-4,995000362E-2	6,453000069E0	1,293105030E1
3,265727204E1	1,201050043E0	5,052000046E0	1,229700089E1
3,267743419E1	2,412000179E0	3,331050158E0	8,212050438E0
3,269759655E1	2,041050196E0	2,488050222E0	7,027050495E0
3,271775846E1	1,210050106E0	2,584050179E0	6,850050449E0
3,273792061E1	9,210000634E-1	3,082050085E0	7,567950249E0
3,275808277E1	1,081050038E0	3,570000172E0	1,068495083E1
3,277824492E1	1,882950068E0	2,512050152E0	1,267500019E1
3,279840701E1	3,667050123E0	5,959500074E-1	9,153000832E0
3,281856917E1	4,801950455E0	-3,370500207E-1	5,788950443E0
3,283873135E1	4,201050282E0	1,257000089E0	8,164050102E0
3,285889350E1	2,824050188E0	2,904000044E0	1,239000034E1
3,287905568E1	2,533950090E0	3,307050228E0	1,088595009E1
3,289921784E1	2,860050201E0	2,763000250E0	6,406950474E0
3,291938001E1	2,269050121E0	2,677050114E0	4,951050282E0
3,293954217E1	1,603050113E0	2,563950062E0	5,607000351E0
3,295970412E1	1,114950061E0	3,538950205E0	7,972050190E0
3,297986651E1	7,459500432E-1	4,884000301E0	1,145895100E1
3,300002869E1	1,890000105E0	4,398000240E0	1,282800102E1
3,302019060E1	3,732000113E0	2,338950157E0	1,035000038E1
3,304035279E1	3,777000189E0	1,791000128E0	8,394000053E0
3,306051494E1	2,379000187E0	2,940000057E0	9,164999962E0
3,308067708E1	1,105050087E0	4,072950363E0	1,115400028E1
3,310083925E1	1,155000091E0	2,689050198E0	8,451000214E0
3,312100132E1	1,593000054E0	2,932950258E0	6,124050140E0
3,314116347E1	1,512000084E0	3,934050083E0	1,019700050E1
3,316132562E1	1,795050144E0	2,821050167E0	1,159500027E1
3,318148778E1	3,553950071E0	1,780950069E0	7,093950272E0
3,320164992E1	3,468000174E0	2,691000223E0	7,804950237E0
3,322181205E1	1,062000036E0	4,185000420E0	1,135800076E1
3,324197418E1	1,311000109E0	3,535950184E0	1,016100025E1
3,326213633E1	1,704000115E0	2,787000179E0	6,703950405E0
3,328229823E1	1,974000096E0	2,943000078E0	7,579950333E0
3,330246034E1	3,247950077E0	2,136000156E0	1,190595055E1
3,332262248E1	4,239000320E0	-4,200000316E-2	1,073805046E1
3,334278463E1	4,840050220E0	-7,339500189E-1	5,929950237E0
3,336294675E1	4,687050343E0	-4,050000105E-3	8,403000832E0
3,338310884E1	2,041050196E0	1,789050102E0	1,391505051E1
3,340327102E1	1,366050124E0	2,421000004E0	1,053000069E1
3,342343316E1	3,025050163E0	1,875000119E0	5,346000195E0
3,344359532E1	3,133050203E0	2,002050161E0	7,398000240E0
3,346375747E1	3,010950089E0	1,882050037E0	9,196050644E0
3,348391964E1	3,751050234E0	1,353000045E0	6,213000298E0
3,350408179E1	5,023950100E0	1,305000067E0	6,067050457E0
3,352424393E1	3,909000158E0	2,758050203E0	1,209795094E1
3,354440608E1	3,127950191E0	4,180050373E0	1,697294998E1
3,356456824E1	3,099000216E0	2,827950239E0	1,364700031E1
3,358473017E1	2,769000053E0	2,064000130E0	6,141000271E0
3,360489234E1	6,570000052E-1	3,259050131E0	4,953000069E0
3,362505453E1	-8,910000324E-1	3,510000229E0	7,350000381E0
3,364521669E1	-6,630000472E-1	3,259050131E0	7,864950180E0
3,366537885E1	-1,573050022E0	5,044950008E0	1,064505005E1
3,368554094E1	-1,555950046E0	4,978050232E0	1,251195049E1
3,370570309E1	1,315950036E0	1,390950084E0	6,796950340E0
3,372586522E1	2,209050179E0	7,570500374E-1	3,385050058E0
3,374602738E1	-1,468050122E0	3,558000088E0	8,446949959E0
3,376618931E1	-3,952950239E0	6,472050190E0	1,482705116E1
3,378635170E1	1,380000114E-1	4,140000343E0	1,360905075E1
3,380651360E1	5,719050407E0	-2,599500120E-1	7,230000496E0
3,382667597E1	9,021000862E0	-2,937000036E0	5,296050072E0
3,384683814E1	9,565950394E0	-3,565950155E0	8,917950630E0
3,386700008E1	7,636950493E0	-1,126950026E0	1,358205032E1
3,388716247E1	4,765950203E0	1,473000050E0	1,226805019E1
3,390732438E1	2,494050026E0	2,605050087E0	6,387000084E0
3,392748651E1	2,002950191E0	1,975050092E0	2,911050081E0
3,394764863E1	-9,480000734E-1	2,986050129E0	5,110950470E0
3,396781077E1	-3,169950247E0	3,856950283E0	5,932950497E0
3,398797294E1	-2,124000072E0	2,959050179E0	4,246950150E0
3,400813500E1	-2,289000034E0	4,516050339E0	5,989950180E0
3,402829716E1	-3,819000244E0	7,273950577E0	1,461705112E1
3,404845932E1	7,095000148E-2	5,943000317E0	1,860600090E1
3,406862126E1	8,032050133E0	-2,910000086E-1	9,684000015E0
3,408878343E1	6,054000378E0	1,458000064E0	6,553050518E0
3,410894557E1	1,912050128E0	4,722000122E0	1,288995075E1
3,412910772E1	2,380950212E0	2,167050123E0	1,328100109E1
3,414926989E1	4,084050179E0	-5,470499992E-1	7,798050404E0
3,416943196E1	3,142950058E0	-9,210000634E-1	6,715050220E0
3,418959412E1	1,809000134E0	-9,180000424E-1	8,546999931E0
3,420975626E1	2,383949995E0	-1,324950099E0	1,002900028E1
3,422991843E1	2,323950052E0	-9,705000371E-2	1,074495029E1
3,425008060E1	1,500000119E0	2,059050083E0	9,961950302E0
3,427024253E1	5,299500227E-1	3,967050076E0	9,802050591E0
3,429040470E1	1,191000104E0	3,783000231E0	9,118950844E0
3,431056685E1	1,890000105E0	2,986050129E0	5,988000393E0
3,433072900E1	1,728000045E0	3,936000109E0	5,770050049E0
3,435089114E1	1,495050073E0	5,812950134E0	1,045095062E1
3,437105333E1	2,901000023E0	4,494000435E0	1,228200054E1
3,439121548E1	4,264950275E0	2,239050150E0	9,037950516E0
3,441137756E1	2,989050150E0	2,143050194E0	8,710050583E0
3,443153980E1	2,359500080E-1	3,370950222E0	1,230105019E1
3,445170186E1	-8,910000324E-1	3,607950211E0	1,326405048E1
3,447186408E1	3,010500073E-1	2,101950169E0	1,038795090E1
3,449202615E1	1,488000035E0	5,100000501E-1	5,133000374E0
3,451218830E1	1,608000040E0	1,819500029E-1	3,532950163E0
3,453235047E1	9,060000181E-1	1,360050082E0	6,936000347E0
3,455251261E1	1,771050096E0	2,641050100E0	1,229700089E1
3,457267477E1	5,797950268E0	2,023050070E0	1,231605053E1
3,459283672E1	8,104050636E0	1,504050016E0	9,282000542E0
3,461299886E1	6,283950329E0	2,679000139E0	8,253000259E0
3,463316101E1	3,267000198E0	3,880950212E0	8,053950310E0
3,465332309E1	1,456950068E0	4,042050362E0	6,885000229E0
3,467348526E1	1,476000071E0	3,225000143E0	6,559950352E0
3,469364737E1	1,111950040E0	3,082050085E0	9,615000725E0
3,471380951E1	1,114950061E0	3,049950123E0	1,329495049E1
3,473397164E1	1,741950035E0	1,870050073E0	1,160700035E1
3,475413357E1	2,479050159E0	3,810000122E-1	6,208050251E0
3,477429574E1	1,728000045E0	7,489500642E-1	6,493050098E0
3,479445791E1	1,860000044E-1	3,177000046E0	1,285695076E1
3,481462007E1	2,062950134E0	2,562000036E0	1,504500103E1
3,483478215E1	5,688000202E0	-1,469999999E-1	8,370000839E0
3,485494439E1	6,577950478E0	3,930000067E-1	5,104050159E0
3,487510646E1	4,732050419E0	2,691000223E0	1,085805035E1
3,489526862E1	1,717950106E0	5,116950035E0	1,744395065E1
3,491543077E1	1,585950017E0	4,852950096E0	1,180800056E1
3,493559292E1	1,780050039E0	4,012950420E0	3,969000101E0
3,495575484E1	-1,282950044E0	5,080950260E0	2,971050024E0
3,497591701E1	-3,441000223E0	5,686050415E0	7,375950336E0
3,499607915E1	-3,016950130E0	4,936950207E0	1,063695049E1
3,501624129E1	-1,458000064E0	4,168950081E0	1,143705082E1
3,503640337E1	1,030950069E0	2,914050102E0	1,098000050E1
3,505656557E1	3,139950037E0	1,534950018E0	1,035195065E1
3,507672763E1	4,122000217E0	1,077000022E0	1,096305084E1
3,509688985E1	4,909950256E0	1,333950043E0	1,205205059E1
3,511705194E1	5,544000149E0	1,036949992E0	1,020600033E1
3,513721407E1	5,344950199E0	9,870000482E-1	7,072050571E0
3,515737598E1	4,366050243E0	4,020000100E-1	4,953000069E0
3,517753813E1	3,394050121E0	5,650500059E-1	5,109000206E0
3,519770051E1	2,623050213E0	1,111050010E0	6,378000259E0
3,521786245E1	1,608000040E0	2,097000122E0	7,479000568E0
3,523802459E1	1,111950040E0	2,785050154E0	7,054950237E0
3,525818668E1	7,890000343E-1	3,193950176E0	6,490050316E0
3,527834885E1	6,550500393E-1	3,526950121E0	7,101000309E0
3,529851101E1	5,449500084E-1	4,285950184E0	1,106400013E1
3,531867315E1	2,629950047E0	3,556050062E0	1,366095066E1
3,533883509E1	4,318050385E0	1,495950103E0	1,003200054E1
3,535899746E1	4,450050354E0	1,683000088E0	7,177950382E0
3,537915938E1	3,123000145E0	2,413950205E0	1,057305050E1
3,539932153E1	1,045050025E0	2,727000237E0	1,172700024E1
3,541948371E1	8,920500278E-1	2,863950253E0	8,521050453E0
3,543964586E1	6,600000262E-1	2,940000057E0	6,519000530E0
3,545980794E1	2,449500114E-1	2,698050022E0	7,776000500E0
3,547997009E1	1,443000078E0	1,903950095E0	8,284049988E0
3,550013234E1	3,195000172E0	1,111050010E0	8,787000656E0
3,552029442E1	3,870000124E0	1,336050034E0	1,105605030E1
3,554045657E1	4,098000050E0	1,956000090E0	1,256505013E1
3,556061851E1	3,904050112E0	2,317950010E0	1,161900043E1
3,558078068E1	3,961050272E0	2,077950001E0	9,181950569E0
3,560094282E1	3,483000278E0	1,858050108E0	8,752950668E0
3,562110499E1	3,231000185E0	1,027050018E0	8,767050743E0
3,564126708E1	3,298050165E0	3,795000166E-2	6,957000256E0
3,566142924E1	3,517950058E0	-6,930000186E-1	4,905000210E0
3,568159141E1	2,866950035E0	-2,140500098E-1	5,527950287E0
3,570175357E1	1,366050124E0	1,984950066E0	9,411000252E0
3,572191570E1	-3,709500134E-1	5,481000423E0	1,386195087E1
3,574207761E1	-1,770000011E-1	6,283050060E0	1,216995049E1
3,576223977E1	1,828050137E0	4,590000153E0	6,013950348E0
3,578240194E1	1,804050088E0	4,324050426E0	4,101000309E0
3,580256401E1	2,260500044E-1	5,277000427E0	7,575000286E0
3,582272617E1	4,489500225E-1	5,244000435E0	1,015605068E1
3,584288832E1	2,374050140E0	4,057950020E0	1,098495007E1
3,586305046E1	4,036050320E0	2,554950237E0	1,172400093E1
3,588321237E1	4,736999989E0	1,915050149E0	1,268400097E1
3,590337451E1	4,264950275E0	2,140950203E0	1,285695076E1
3,592353666E1	3,334050179E0	2,389950037E0	1,062495041E1
3,594369903E1	2,884050131E0	2,191050053E0	7,198950291E0
3,596386095E1	2,496000051E0	1,774050117E0	5,949000359E0
3,598402310E1	2,331000090E0	1,288050056E0	6,636000156E0
3,600418526E1	2,125050068E0	1,384050012E0	7,963050365E0
3,602434740E1	2,415000200E0	1,662000060E0	8,676000595E0
3,604450958E1	2,446050167E0	2,164950132E0	8,334000587E0
3,606467166E1	1,917000055E0	3,076950073E0	8,226000786E0
3,608483382E1	1,312950015E0	4,039050102E0	8,323950768E0
3,610499597E1	1,321050048E0	4,269000053E0	8,533050537E0
3,612515811E1	1,360950112E0	3,964950085E0	8,590050697E0
3,614532004E1	1,138950109E0	3,643950224E0	8,833950043E0
3,616548217E1	1,090950012E0	2,935050249E0	8,062950134E0
3,618564425E1	1,474050045E0	2,301000118E0	7,563000202E0
3,620580641E1	2,106000185E0	2,356050014E0	9,691950798E0
3,622596856E1	3,127950191E0	2,707950115E0	1,207605076E1
3,624613049E1	4,261050224E0	1,882050037E0	1,182000065E1
3,626629287E1	4,210050106E0	1,603950024E0	8,740950584E0
3,628645482E1	2,412000179E0	2,866050243E0	8,161950111E0
3,630661696E1	1,123950005E0	4,312050343E0	1,037400055E1
3,632677904E1	1,708050132E0	3,979050159E0	1,129095078E1
3,634694128E1	3,111000061E0	2,229000092E0	8,272050858E0
3,636710344E1	3,796050072E0	8,809500337E-1	6,238950253E0
3,638726551E1	2,865000248E0	8,740500212E-1	6,913950443E0
3,640742774E1	2,151000023E0	1,851000071E0	9,318000793E0
3,642758981E1	1,444950104E0	3,864000082E0	1,095600033E1
3,644775198E1	1,801950097E0	4,501049995E0	1,164495087E1
3,646791414E1	2,539050102E0	3,393000126E0	1,039605045E1
3,648807609E1	2,568000078E0	2,394000053E0	8,494050026E0
3,650823816E1	2,110949993E0	1,579950094E0	7,522050381E0
3,652840031E1	1,339950085E0	2,080950022E0	7,726050377E0
3,654856246E1	7,360500097E-1	3,481050253E0	9,246000290E0
3,656872462E1	1,432950020E0	4,360050201E0	1,102995014E1
3,658888658E1	3,387000084E0	3,735000134E0	1,084995079E1
3,660904871E1	4,582050323E0	2,389950037E0	8,245050430E0
3,662921087E1	3,430050135E0	1,936950088E0	6,682050228E0
3,664937303E1	1,548000097E0	3,204000235E0	8,226000786E0
3,666953510E1	7,549500465E-1	4,759950161E0	1,122600079E1
3,668969725E1	1,861950040E0	4,477050304E0	1,147995090E1
3,670985940E1	3,490050077E0	2,896950245E0	9,148050308E0
3,673002134E1	3,217050076E0	2,337000132E0	8,572950363E0
3,675018347E1	1,110000014E0	3,358950138E0	9,115050316E0
3,677034584E1	8,299500346E-1	3,583950281E0	8,449049950E0
3,679050776E1	1,158000112E0	3,556050062E0	8,062950134E0
3,681066989E1	1,146000028E0	3,328050137E0	8,545050621E0
3,683083197E1	1,480950117E0	3,217950106E0	9,164999962E0
3,685099413E1	2,665950060E0	3,000000238E0	1,025895023E1
3,687115629E1	3,013050079E0	2,631000042E0	1,057695007E1
3,689131845E1	2,653950214E0	1,855950117E0	7,993950367E0
3,691148035E1	1,753950119E0	2,085000038E0	6,430950165E0
3,693164250E1	4,270500243E-1	3,739950180E0	8,739000320E0
3,695180463E1	6,000000052E-3	5,326950073E0	1,186605072E1
3,697196699E1	2,470050097E0	3,241950035E0	9,996000290E0
3,699212892E1	4,159950256E0	5,839500427E-1	5,590050220E0
3,701229099E1	3,430050135E0	8,670000434E-1	6,213000298E0
3,703245315E1	1,195950031E0	3,547950268E0	1,182495022E1
3,705261529E1	1,315950036E0	4,759950161E0	1,422195053E1
3,707277747E1	3,190050125E0	3,019050121E0	8,016000748E0
3,709293940E1	3,159000158E0	2,515950203E0	5,149950027E0
3,711310148E1	1,572000027E0	3,342000246E0	8,764950752E0
3,713326371E1	8,299500346E-1	3,366000175E0	1,076895046E1
3,715342578E1	2,094000101E0	2,478000164E0	7,812000275E0
3,717358793E1	2,058000088E0	2,416050196E0	6,691950321E0
3,719375008E1	1,026000023E0	3,663000107E0	9,547950745E0
3,721391223E1	1,122000098E0	4,075050354E0	1,192995071E1
3,723407414E1	1,608000040E0	3,738000154E0	1,124295044E1
3,725423631E1	2,448000193E0	2,655000210E0	7,501050472E0
3,727439841E1	1,608000040E0	2,404050112E0	7,423950195E0
3,729456058E1	8,580000401E-1	2,931000233E0	1,033605003E1
3,731472274E1	1,318050027E0	2,908950090E0	1,119300079E1
3,733488492E1	1,761000037E0	3,247050047E0	9,274950027E0
3,735504708E1	2,512950182E0	2,410950184E0	8,212050438E0
3,737520926E1	2,968050241E0	1,518000126E0	8,434950829E0
3,739537119E1	2,922000170E0	1,767000079E0	8,230950356E0
3,741553337E1	2,845950127E0	3,007050037E0	8,347949982E0
3,743569544E1	2,533950090E0	4,201950073E0	1,200405025E1
3,745585761E1	2,704050064E0	3,508050203E0	1,231605053E1
3,747601979E1	2,977050066E0	2,287050009E0	6,856950283E0
3,749618193E1	2,257050037E0	2,224050045E0	4,647000313E0
3,751634406E1	6,550500393E-1	3,697050095E0	8,037000656E0
3,753650599E1	-3,780000210E-1	5,653050423E0	1,255500031E1
3,755666813E1	9,420000315E-1	4,843950272E0	1,146795082E1
3,757683018E1	2,748000145E0	2,830050230E0	6,261000156E0
3,759699240E1	2,896050215E0	2,464050055E0	5,743050098E0
3,761715446E1	2,367000103E0	3,547950268E0	9,811050415E0
3,763731660E1	1,801950097E0	4,894050121E0	1,393200111E1
3,765747850E1	2,881950140E0	3,603000164E0	1,171500015E1
3,767764065E1	3,139950037E0	2,026050091E0	7,051050186E0
3,769780279E1	2,143949986E0	2,143050194E0	6,033000469E0
3,771796492E1	3,340500295E-1	3,354000092E0	8,632950783E0
3,773812701E1	-3,160500228E-1	4,173000336E0	1,085505009E1
3,775828916E1	1,009050012E0	2,899950027E0	8,680950165E0
3,777845132E1	2,331000090E0	1,549050093E0	6,727050304E0
3,779861324E1	2,110949993E0	1,426950097E0	7,288050175E0
3,781877539E1	1,561950088E0	2,743950129E0	9,238950729E0
3,783893754E1	1,309050083E0	4,033950329E0	1,092495060E1
3,785909971E1	1,624950051E0	4,602000237E0	1,165500069E1
3,787926179E1	2,728050232E0	3,817050219E0	1,041705036E1
3,789942394E1	3,376950264E0	2,413950205E0	7,623000145E0
3,791958613E1	2,839050055E0	2,401950121E0	6,334950447E0
3,793974829E1	1,831050038E0	3,192000151E0	7,312050343E0
3,795991021E1	1,366050124E0	3,793050289E0	9,162000656E0
3,798007235E1	1,591050029E0	3,855000257E0	9,912000656E0
3,800023451E1	2,213999987E0	3,559950113E0	1,042695045E1
3,802039666E1	2,419950008E0	3,354000092E0	1,091700077E1
3,804055875E1	2,451000214E0	2,995050192E0	1,006005001E1
3,806072090E1	1,905000091E0	3,139050245E0	7,837950230E0
3,808088284E1	8,460000157E-1	3,715950251E0	7,678050518E0
3,810104498E1	-2,800500095E-1	5,160000324E0	9,253050804E0
3,812120714E1	3,390000165E-1	5,101950169E0	1,055805016E1
3,814136928E1	2,187000036E0	2,851950169E0	8,928000450E0
3,816153137E1	3,210000038E0	1,570950031E0	6,732000351E0
3,818169350E1	2,980050087E0	1,759950042E0	6,838050365E0
3,820185564E1	1,893000126E0	3,358950138E0	9,919050217E0
3,822201778E1	4,060500264E-1	5,425950050E0	1,260795021E1
3,824217971E1	1,218000054E0	4,705049992E0	1,106595039E1
3,826234184E1	2,508000135E0	3,189000130E0	7,489050388E0
3,828250400E1	2,827050209E0	2,410950184E0	6,864000320E0
3,830266616E1	1,984050035E0	3,211050034E0	8,916000366E0
3,832282824E1	1,813950062E0	3,703950167E0	9,160050392E0
3,834299019E1	2,053050041E0	3,538950205E0	8,290950775E0
3,836315233E1	2,272950172E0	3,667950153E0	7,671000481E0
3,838331448E1	2,009999990E0	3,970050097E0	8,406000137E0
3,840347665E1	1,858950138E0	3,796950102E0	8,995050430E0
3,842363875E1	1,777950048E0	3,124950171E0	9,073950768E0
3,844380097E1	1,723050117E0	2,737050056E0	8,614050865E0
3,846396316E1	1,423050046E0	3,241950035E0	8,686050415E0
3,848412524E1	1,909950137E0	3,400050163E0	9,117000580E0
3,850428740E1	2,209050179E0	2,851950169E0	8,844000816E0
3,852444955E1	2,400000095E0	2,806050062E0	9,115050316E0
3,854461170E1	2,379000187E0	3,180000067E0	9,876000404E0
3,856477360E1	1,579050064E0	4,069950104E0	1,077405071E1
3,858493575E1	1,138950109E0	3,630000114E0	9,607950211E0
3,860509782E1	1,723050117E0	3,052950144E0	7,654050350E0
3,862525997E1	1,768050075E0	2,590950012E0	8,178000450E0
3,864542212E1	2,143949986E0	2,296050072E0	8,947050095E0
3,866558395E1	2,323950052E0	2,227050066E0	8,596950531E0
3,868574611E1	2,499000072E0	2,193000078E0	8,209950447E0
3,870590836E1	1,519050121E0	3,342000246E0	9,048000336E0
3,872607040E1	7,390500307E-1	4,309950352E0	1,045305061E1
3,874623255E1	1,468950033E0	3,589050055E0	1,036395073E1
3,876639449E1	2,131950140E0	2,727000237E0	8,809950829E0
3,878655664E1	2,359950066E0	2,245950222E0	7,752000332E0
3,880671880E1	1,954950094E0	2,605050087E0	8,913000107E0
3,882688096E1	1,344000101E0	3,498000145E0	1,015800095E1
3,884704311E1	1,543050051E0	4,024950027E0	1,020195007E1
3,886720528E1	2,110949993E0	3,477000237E0	9,538050652E0
3,888736735E1	2,119950056E0	2,883000135E0	9,061950684E0
3,890752950E1	1,783050060E0	2,812950134E0	8,539950371E0
3,892769168E1	1,276950002E0	3,145950079E0	8,383950233E0
3,894785359E1	1,057050109E0	3,757050276E0	8,602050781E0
3,896801575E1	1,929000139E0	3,501000166E0	9,451950073E0
3,898817791E1	2,853000164E0	2,797050238E0	9,996000290E0
3,900833975E1	3,010950089E0	2,554950237E0	9,886050224E0
3,902850188E1	2,167950153E0	3,072000027E0	9,735000610E0
3,904866428E1	1,297050118E0	3,511950254E0	9,423000336E0
3,906882621E1	8,010000587E-1	3,697050095E0	8,413050652E0
3,908898828E1	1,083000064E0	3,769050121E0	7,852950573E0
3,910915041E1	1,885950089E0	3,460050106E0	8,482049942E0
3,912931255E1	2,091000080E0	3,277950048E0	9,196050644E0
3,914947447E1	1,821000099E0	3,240000248E0	8,607000351E0
3,916963663E1	1,258050084E0	4,056000233E0	8,362950325E0
3,918979870E1	4,560000300E-1	5,011050224E0	9,493050575E0
3,920996086E1	5,449500084E-1	4,896000385E0	9,960000038E0
3,923012301E1	1,495050073E0	3,829050064E0	9,129000664E0
3,925028518E1	2,572950125E0	2,710050106E0	8,254950523E0
3,927044734E1	2,659050226E0	2,124000072E0	8,575950623E0
3,929060927E1	1,555050015E0	3,541050196E0	1,008900070E1
3,931077142E1	1,210050106E0	4,219050407E0	1,064505005E1
3,933093350E1	1,501950026E0	4,345950127E0	9,763050079E0
3,935109565E1	2,020050049E0	3,283050060E0	8,545050621E0
3,937125780E1	2,557950020E0	2,014050007E0	7,303950310E0
3,939141995E1	2,293050051E0	1,683000088E0	7,546050549E0
3,941158184E1	1,513950109E0	2,569050074E0	8,550000191E0
3,943174401E1	8,779500127E-1	3,433050156E0	9,943050385E0
3,945190608E1	1,291950107E0	3,208050251E0	9,457050323E0
3,947206829E1	2,070000172E0	2,643000126E0	8,323950768E0
3,949223038E1	1,567050099E0	3,274950266E0	9,037950516E0
3,951239232E1	8,539500237E-1	4,000950336E0	1,032600021E1
3,953255468E1	8,899500370E-1	4,068000317E0	9,687000275E0
3,955271662E1	1,291950107E0	3,679950237E0	7,989000320E0
3,957287868E1	1,387950063E0	3,304050207E0	6,964050293E0
3,959304090E1	1,378050089E0	3,574950218E0	8,451000214E0
3,961320297E1	1,929000139E0	3,988950253E0	1,078605080E1
3,963336511E1	2,925000191E0	3,691950083E0	1,171500015E1
3,965352705E1	3,043950081E0	2,926050186E0	1,051800060E1
3,967368921E1	1,773000121E0	2,991000175E0	8,077950478E0
3,969385136E1	2,689500153E-1	4,078050137E0	7,563000202E0
3,971401344E1	-2,250000089E-1	4,321950436E0	8,296050072E0
3,973417558E1	3,360000253E-1	3,891000271E0	8,799000740E0
3,975433754E1	1,974000096E0	2,887950182E0	8,326950073E0
3,977449971E1	3,202050209E0	2,062050104E0	8,557050705E0
3,979466186E1	3,193050146E0	1,804950118E0	9,355950356E0
3,981482395E1	2,376000166E0	2,610000134E0	9,579000473E0
3,983498610E1	1,330050111E0	4,225950241E0	1,149195099E1
3,985514826E1	2,910000086E-1	5,505000114E0	1,321605110E1
3,987531017E1	1,165050030E0	3,489000082E0	9,024000168E0
3,989547234E1	3,076050043E0	1,180050015E0	3,679950237E0
3,991563449E1	2,946000099E0	1,048950076E0	3,415950060E0
3,993579664E1	1,336950064E0	2,691000223E0	7,849950314E0
3,995595873E1	-4,020000100E-1	4,870050430E0	1,285905075E1
3,997612088E1	8,460000157E-1	4,747950077E0	1,262700081E1
3,999628278E1	3,487050056E0	2,974050045E0	9,361050606E0
4,001644492E1	3,705000162E0	2,551950216E0	7,621050358E0
4,003660709E1	1,605000019E0	3,283050060E0	8,269050598E0
4,005676924E1	-2,250000089E-1	5,133000374E0	9,969000816E0
4,007693136E1	1,450500041E-1	5,269950390E0	1,102500057E1
4,009709360E1	2,752050161E0	2,148000002E0	8,133000374E0
4,011725567E1	3,529950142E0	1,353000045E0	6,505050182E0
4,013741762E1	3,127950191E0	2,109000206E0	8,080050468E0
4,015757979E1	1,431000113E0	4,305000305E0	1,287405014E1
4,017774196E1	1,090500057E-1	5,016000271E0	1,336395073E1
4,019790401E1	1,191000104E0	3,502950191E0	7,965000153E0
4,021806617E1	1,251000047E0	3,151050091E0	5,236050129E0
4,023822834E1	-4,480500221E-1	4,000950336E0	8,617050171E0
4,025839026E1	2,620500028E-1	3,472050190E0	1,037205029E1
4,027855243E1	2,721000195E0	2,236050129E0	9,032999992E0
4,029871456E1	4,111950397E0	1,903950095E0	8,584950447E0
4,031887674E1	2,536950111E0	3,558000088E0	1,164300060E1
4,033903883E1	1,098000050E0	4,894050121E0	1,245495033E1
4,035920072E1	8,149500489E-1	4,654950142E0	9,694050789E0
4,037936287E1	1,605000019E0	3,418950081E0	6,082950115E0
4,039952504E1	1,584000111E0	2,287050009E0	5,394000053E0
4,041968708E1	8,490000367E-1	2,464050055E0	7,105950356E0
4,043984925E1	-9,600000083E-2	3,619950056E0	9,748950005E0
4,046001114E1	-3,795000166E-2	4,384050369E0	1,028295040E1
4,048017331E1	5,179499984E-1	4,530000210E0	9,376049995E0
4,050033568E1	1,146000028E0	4,233000278E0	8,442000389E0
4,052049762E1	1,189050078E0	4,638000011E0	9,402000427E0
4,054065976E1	1,864050031E0	4,140000343E0	1,040295029E1
4,056082185E1	3,255000114E0	2,052000046E0	8,374950409E0
4,058098378E1	3,652950287E0	1,422000051E0	7,885950565E0
4,060114594E1	2,905950069E0	1,963050127E0	9,262950897E0
4,062130811E1	1,531050086E0	3,157950163E0	1,140405083E1
4,064147015E1	1,525950074E0	3,433050156E0	1,094100094E1
4,066163230E1	2,331000090E0	3,000000238E0	8,482049942E0
4,068179444E1	2,697000027E0	2,299050093E0	7,065000534E0
4,070195637E1	9,709500670E-1	3,022050142E0	8,443950653E0
4,072211873E1	-9,600000083E-2	4,036950111E0	8,301000595E0
4,074228061E1	8,505000174E-2	4,140000343E0	7,501050472E0
4,076244275E1	-8,520000577E-1	4,312050343E0	7,980000496E0
4,078260492E1	-2,361000061E0	4,384050369E0	1,009605026E1
4,080276706E1	-2,952000141E0	4,984950066E0	1,016805077E1
4,082292899E1	-2,812950134E0	4,867950439E0	9,628950119E0
4,084309113E1	-3,220050097E0	4,534950256E0	9,766050339E0
4,086325321E1	-3,559950113E0	3,948000193E0	9,619950294E0
4,088341535E1	-5,251050472E0	4,051050186E0	1,122900009E1
4,090357728E1	-6,481050491E0	4,069950104E0	1,372395039E1
4,092373965E1	-5,727000237E0	3,964950085E0	1,311495018E1
4,094390181E1	-4,920000076E0	3,790050268E0	1,230900097E1
4,096406397E1	-5,011050224E0	3,795000076E0	1,147305012E1
4,098422589E1	-4,954050064E0	3,763950109E0	9,229050636E0
4,100438805E1	-4,927950382E0	4,149000168E0	7,288050175E0
4,102455012E1	-5,002050400E0	4,444050312E0	6,294000149E0
4,104471229E1	-5,418000221E0	4,759950161E0	6,049950123E0
4,106487419E1	-5,179050446E0	4,858050346E0	5,431950092E0
4,108503635E1	-5,136000156E0	4,273950100E0	5,521050453E0
4,110519850E1	-4,456050396E0	3,666000128E0	6,457050323E0
4,112536057E1	-3,904950142E0	3,639000177E0	7,032000542E0
4,114552274E1	-3,132000208E0	3,622950077E0	5,751000404E0
4,116568468E1	-3,394950151E0	4,044000149E0	4,546050072E0
4,118584676E1	-4,063050270E0	4,734000206E0	4,398000240E0
4,120600890E1	-5,572050095E0	6,301950455E0	4,126950264E0
4,122617105E1	-6,771000385E0	7,135050297E0	3,451950073E0
4,124633298E1	-8,104949951E0	6,394950390E0	3,907050133E0
4,126649514E1	-9,232050896E0	6,613050461E0	6,493050098E0
4,128665728E1	-9,031050682E0	6,843000412E0	7,177950382E0
4,130681934E1	-7,645050526E0	5,167050362E0	3,964050293E0
4,132698150E1	-8,875950813E0	4,995000362E0	4,156050205E0
4,134714366E1	-9,762000084E0	5,959050179E0	2,971050024E0
4,136730584E1	-1,044405079E1	5,143050194E0	-7,080000043E-1
4,138746799E1	-1,193100071E1	5,032950401E0	-1,552950025E0
4,140762992E1	-1,183005047E1	5,833050251E0	-1,608000040E0
4,142779199E1	-6,292050362E0	3,522000074E0	-3,603000164E0
4,144795416E1	-6,619950294E0	5,722050190E0	-4,768950462E0
4,146811628E1	-7,296000481E0	3,241950035E0	-4,635000229E0
4,148827820E1	-9,643950462E0	4,042050362E0	-1,173000097E0
4,150844036E1	-1,040295029E1	4,342950344E0	-2,791050196E0
4,152860222E1	-8,550000191E0	4,597050190E0	-3,280050039E0
4,154876468E1	-6,826050282E0	4,303050041E0	-2,133000135E0
4,156892675E1	-4,123050213E0	3,244050264E0	-3,694050074E0
4,158908869E1	-4,987050056E0	3,088950157E0	-4,270950317E0
4,160925075E1	-6,322950363E0	3,963000298E0	-2,293050051E0
4,162941291E1	-7,054050446E0	4,328999996E0	-2,220000178E-1
4,164957484E1	-4,315050125E0	2,811000109E0	-2,479950190E0
4,166973722E1	-2,056950092E0	2,109000206E0	-5,961000443E0
4,168989912E1	-4,839000225E0	1,936950088E0	-5,475000381E0
4,171006121E1	-9,131999969E0	2,695950031E0	-1,498050094E0
4,173022336E1	-8,348999977E0	2,005950212E0	-1,972050071E0
4,175038554E1	-3,333000183E0	-3,319500089E-1	-9,301050186E0
4,177054770E1	-2,197950125E0	-7,240500450E-1	-1,266495037E1
4,179070964E1	-3,073950052E0	7,140000463E-1	-1,042905045E1
4,181087180E1	-4,792950153E0	2,230500132E-1	-8,509050369E0
4,183103387E1	-4,525050163E0	-9,829500318E-1	-8,029950142E0
4,185119581E1	-4,084949970E0	-1,656000137E0	-9,925950050E0
4,187135798E1	-5,944950104E0	-4,830000103E-1	-8,394000053E0
4,189152005E1	-7,777050495E0	-3,030000031E-1	-7,663950443E0
4,191168220E1	-7,189950466E0	-1,558050036E0	-6,202950478E0
4,193184437E1	-3,991050243E0	-2,146950006E0	-7,876950264E0
4,195200629E1	-1,834050059E0	-2,671050072E0	-7,447950363E0
4,197216868E1	-5,359500051E-1	-4,042950153E0	-9,379950523E0
4,199233053E1	-1,525050044E0	-4,807050228E0	-1,150200081E1
4,201249269E1	-5,119050026E0	-3,511050224E0	-1,057005024E1
4,203265483E1	-9,084000587E0	-5,179499984E-1	-6,945000172E0
4,205281674E1	-6,466950417E0	-1,069500074E-1	-7,587000370E0
4,207297889E1	-3,718050241E0	-1,789950132E0	-9,877950668E0
4,209314102E1	-4,900950432E0	-1,600950122E0	-8,973000526E0
4,211330308E1	-5,976000309E0	-1,227000117E0	-6,307950497E0
4,213346522E1	-4,341000080E0	-2,695050240E0	-6,430950165E0
4,215362716E1	-4,377000332E0	-3,583050251E0	-1,011795044E1
4,217378929E1	-6,036000252E0	-2,805000067E0	-1,016805077E1
4,219395136E1	-5,988000393E0	-2,685000181E0	-7,108050346E0
4,221411351E1	-3,019050121E0	-4,210050106E0	-8,202000618E0
4,223427567E1	-4,543950081E0	-3,427950144E0	-1,053705025E1
4,225443758E1	-5,980950356E0	-2,080049992E0	-8,566050529E0
4,227459969E1	-3,654000282E0	-3,499050140E0	-6,547950268E0
4,229476186E1	-2,434950113E0	-5,142000198E0	-6,378000259E0
4,231492379E1	-3,721050262E0	-3,010950089E0	-9,652950287E0
4,233508594E1	-6,000000477E0	-1,194000006E0	-9,220050812E0
4,235524810E1	-6,643950462E0	-1,030950069E0	-7,261050224E0
4,237541018E1	-5,742000103E0	-1,464000106E0	-6,790050507E0
4,239557234E1	-4,543950081E0	-1,552950025E0	-6,487950325E0
4,241573457E1	-5,044950008E0	-1,218000054E0	-6,595950127E0
4,243589645E1	-4,987050056E0	-2,310000062E-1	-8,206950188E0
4,245605852E1	-6,667950153E0	5,959500074E-1	-7,953000546E0
4,247622068E1	-8,586000443E0	1,579950094E0	-6,694050312E0
4,249638282E1	-7,303050518E0	5,820000172E-1	-7,840950489E0
