"Time (s)"	"Gyroscope x (rad/s)"	"Gyroscope y (rad/s)"	"Gyroscope z (rad/s)"
7,516088600E-2	-2,543750107E-1	-1,361249983E-1	-2,677125037E-1
9,532305800E-2	-8,098749816E-2	-8,195000142E-2	-3,656125069E-1
1,154852370E-1	-7,782500237E-2	-1,374999993E-2	-4,496249855E-1
1,356474680E-1	-1,926375031E-1	-4,675000161E-2	-5,081999898E-1
1,558096320E-1	-2,853125036E-1	-1,681624949E-1	-5,730999708E-1
1,759720010E-1	-1,948374957E-1	-2,692250013E-1	-6,943749785E-1
1,961341540E-1	2,337500080E-2	-3,585999906E-1	-7,050999999E-1
2,162963910E-1	1,616999954E-1	-3,745499849E-1	-6,263124943E-1
2,364585540E-1	6,270000339E-2	-3,628624976E-1	-6,402000189E-1
2,566207180E-1	-2,022625059E-1	-3,085500002E-1	-7,071624994E-1
2,767828860E-1	-4,002625048E-1	-3,437500000E-1	-6,976749897E-1
2,969453270E-1	-3,214749992E-1	-3,415499926E-1	-5,955125093E-1
3,171074150E-1	-1,043625027E-1	-3,511750102E-1	-4,581499994E-1
3,372696410E-1	5,733750015E-2	-4,257000089E-1	-4,208875000E-1
3,574317850E-1	1,275999993E-1	-4,670875072E-1	-4,709374905E-1
3,775941820E-1	1,637624949E-1	-4,713499844E-1	-4,976125062E-1
3,977563530E-1	2,457125038E-1	-4,086500108E-1	-5,081999898E-1
4,179184970E-1	4,329875112E-1	-2,297624946E-1	-4,965125024E-1
4,380807280E-1	6,617875099E-1	-1,159124970E-1	-4,262500107E-1
4,582428720E-1	8,555250168E-1	-8,084999770E-2	-3,092375100E-1
4,784052690E-1	7,917249799E-1	-1,841125041E-1	-2,602874935E-1
4,985674180E-1	4,192374945E-1	-4,437125027E-1	-2,304500043E-1
5,187295770E-1	1,053249985E-1	-5,863000154E-1	-1,835625023E-1
5,388917900E-1	2,117500082E-2	-5,384500027E-1	-2,070749998E-1
5,590539350E-1	1,383250058E-1	-3,810124993E-1	-2,975499928E-1
5,792161030E-1	3,106124997E-1	-2,436500043E-1	-3,986124992E-1
5,993784920E-1	4,511374831E-1	-2,510749996E-1	-4,507249892E-1
6,195406490E-1	4,969249964E-1	-3,341250122E-1	-4,592500031E-1
6,397027980E-1	4,351874888E-1	-3,841750026E-1	-3,986124992E-1
6,598650400E-1	2,979624867E-1	-3,819749951E-1	-3,400374949E-1
6,800274280E-1	1,457500011E-1	-3,830749989E-1	-3,102000058E-1
7,001896580E-1	4,455000162E-2	-4,416500032E-1	-2,688125074E-1
7,203517780E-1	-9,624999948E-3	-4,809750021E-1	-2,358125001E-1
7,405139440E-1	-5,431250110E-2	-4,490749836E-1	-2,560249865E-1
7,606763220E-1	-6,077500060E-2	-3,554374874E-1	-3,038749993E-1
7,808382420E-1	-4,798749834E-2	-3,117125034E-1	-3,698749840E-1
8,010006350E-1	-9,624999948E-3	-3,469125032E-1	-3,943499923E-1
8,211627920E-1	1,801249944E-2	-3,702875078E-1	-4,028750062E-1
8,413250180E-1	9,033749998E-2	-3,480125070E-1	-4,028750062E-1
8,614871740E-1	1,924999952E-1	-3,320625126E-1	-4,294124842E-1
8,816493230E-1	3,319250047E-1	-3,404499888E-1	-4,060375094E-1
9,018116810E-1	3,797749877E-1	-3,799124956E-1	-3,591499925E-1
9,219739050E-1	2,681249976E-1	-3,862375021E-1	-3,144625127E-1
9,421360580E-1	8,401250094E-2	-3,713875115E-1	-2,697750032E-1
9,622984280E-1	-9,899999946E-2	-3,107500076E-1	-2,102375031E-1
9,824605840E-1	-1,479499936E-1	-1,553750038E-1	-1,368124932E-1
1,002622726E0	-7,136250287E-2	-2,653750032E-2	-1,112374961E-1
1,022784948E0	8,084999770E-2	-5,101250112E-2	-1,357125044E-1
1,042947109E0	2,701874971E-1	-1,616999954E-1	-1,336500049E-1
1,063109481E0	3,224374950E-1	-2,649624944E-1	-1,069749966E-1
1,083271406E0	2,574000061E-1	-2,340250015E-1	-6,861250103E-2
1,103433779E0	1,467124969E-1	-3,189999983E-2	2,076249942E-2
1,123596001E0	4,564999789E-2	1,299374998E-1	1,388749927E-1
1,143758141E0	-7,782500237E-2	1,032624990E-1	2,165624946E-1
1,163920523E0	-1,799875051E-1	-7,864999771E-2	2,388374954E-1
1,184082696E0	-1,139874980E-1	-2,670249939E-1	2,399374992E-1
1,204244932E0	1,010624990E-1	-3,851374984E-1	1,984124929E-1
1,224407033E0	2,937000096E-1	-3,361875117E-1	1,303499937E-1
1,244569274E0	3,713875115E-1	-2,032250017E-1	5,472499877E-2
1,264731659E0	3,680875003E-1	-9,253749996E-2	9,088750184E-2
1,284893826E0	2,180749923E-1	-9,679999948E-2	1,803999990E-1
1,305056076E0	-5,651250109E-2	-9,996250272E-2	1,984124929E-1
1,325218230E0	-3,033249974E-1	1,099999994E-3	1,473999918E-1
1,345380372E0	-4,492124915E-1	2,117500007E-1	9,198749810E-2
1,365542526E0	-5,534374714E-1	3,735874891E-1	1,223750040E-2
1,385704896E0	-5,960624814E-1	3,789499998E-1	-2,928750031E-2
1,405867053E0	-5,374875069E-1	2,447499931E-1	-9,735000134E-2
1,426029215E0	-3,661625087E-1	8,731249720E-2	-2,208250016E-1
1,446191458E0	-7,356250286E-2	-1,911249943E-2	-2,942500114E-1
1,466353612E0	1,776500046E-1	-3,932499886E-2	-3,070375025E-1
1,486515997E0	3,053874969E-1	-1,058750041E-2	-3,177624941E-1
1,506678139E0	3,595624864E-1	5,967500061E-2	-2,996124923E-1
1,526840377E0	3,478749990E-1	1,511124969E-1	-2,666125000E-1
1,547002516E0	1,915374994E-1	2,523125112E-1	-2,666125000E-1
1,567164891E0	-8,731249720E-2	2,979624867E-1	-2,517625093E-1
1,587327115E0	-1,746249944E-1	4,268000126E-1	-1,687124968E-1
1,607489262E0	-8,841250092E-2	5,395500064E-1	-1,101374999E-1
1,627651387E0	1,911249943E-2	4,310624897E-1	-1,016125008E-1
1,647813773E0	3,286249936E-2	2,469500005E-1	-1,336500049E-1
1,667975937E0	-2,887500077E-2	1,596374959E-1	-1,612875015E-1
1,688138154E0	8,291249722E-2	1,043625027E-1	-1,377750039E-1
1,708300336E0	3,319250047E-1	5,321250111E-2	-4,633750021E-2
1,728462483E0	4,309250116E-1	8,524999954E-3	2,928750031E-2
1,748624885E0	3,063499928E-1	-9,047500044E-2	6,008749828E-2
1,768786795E0	8,401250094E-2	-8,291249722E-2	1,121999994E-1
1,788949187E0	-4,056249931E-2	-1,374999993E-2	1,824624985E-1
1,809111338E0	9,487500414E-3	-2,021249942E-2	1,750375032E-1
1,829273567E0	4,881250113E-2	1,814999990E-2	6,008749828E-2
1,849435723E0	7,864999771E-2	1,490499973E-1	-4,949999973E-2
1,869598113E0	2,223374993E-1	2,873750031E-1	-8,470000327E-2
1,889760254E0	4,021874964E-1	3,096500039E-1	-1,293874979E-1
1,909922415E0	3,691875041E-1	1,670625061E-1	-2,006125003E-1
1,930084650E0	1,222374961E-1	3,519999981E-2	-2,463999987E-1
1,950246828E0	-1,639000028E-1	5,747500062E-2	-2,580874860E-1
1,970409223E0	-2,193125039E-1	1,968999952E-1	-2,751374841E-1
1,990571377E0	-1,564749926E-1	2,575374842E-1	-3,613499999E-1
2,010733531E0	-1,277374923E-1	2,606999874E-1	-4,783625007E-1
2,030895751E0	8,291249722E-2	1,405249983E-1	-4,837250113E-1
2,051058158E0	4,235000014E-1	-1,574375033E-1	-4,613125026E-1
2,071220297E0	5,564625263E-1	-3,437500000E-1	-5,017374754E-1
2,091382456E0	5,373499990E-1	-2,606999874E-1	-4,900499880E-1
2,111544680E0	6,320874691E-1	-1,457500011E-1	-4,156624973E-1
2,131706848E0	6,171000004E-1	-3,079999983E-2	-3,155624866E-1
2,151869010E0	1,904374957E-1	3,189999983E-2	-2,208250016E-1
2,172031475E0	-4,342249930E-1	1,501500010E-1	-1,815000027E-1
2,192193615E0	-8,216999769E-1	3,055250049E-1	-1,601874977E-1
2,212355795E0	-9,238625169E-1	3,299999833E-1	-5,059999973E-2
2,232517949E0	-7,779750228E-1	8,937499672E-2	1,132999957E-1
2,252680340E0	-5,673249960E-1	-3,671250045E-1	1,132999957E-1
2,272842472E0	-4,225375056E-1	-5,618249774E-1	-5,499999970E-4
2,293004692E0	-2,267374992E-1	-4,639250040E-1	-1,123374999E-1
2,313166838E0	5,637500063E-2	-3,159750104E-1	-1,783374995E-1
2,333329002E0	2,063875049E-1	-1,733874977E-1	-2,569875121E-1
2,353491369E0	1,222374961E-1	3,519999981E-2	-2,825624943E-1
2,373653595E0	1,882375032E-1	7,768750191E-2	-1,155000031E-1
2,393815742E0	5,926250219E-1	-3,235374987E-1	8,030000329E-2
2,413977910E0	9,608500004E-1	-8,438374996E-1	9,088750184E-2
2,434140069E0	1,039637446E0	-1,021625042E0	5,499999970E-4
2,454302442E0	7,980499864E-1	-7,629874945E-1	-1,633500010E-1
2,474464612E0	4,448125064E-1	-6,523000002E-1	-2,070749998E-1
2,494626847E0	1,989624947E-1	-4,852375090E-1	-5,486249924E-2
2,514788987E0	1,744875014E-1	-5,101250112E-2	-4,949999973E-2
2,534951350E0	6,608250141E-1	-2,021249942E-2	-2,186249942E-2
2,555113516E0	1,321650028E0	-4,383499920E-1	-1,539999992E-2
2,575275742E0	1,124750018E0	-2,638624907E-1	-3,038749993E-1
2,595437896E0	8,181250095E-2	6,151750088E-1	-6,072000265E-1
2,615600039E0	-3,693250120E-1	1,052562475E0	-4,486624897E-1
2,635762444E0	-2,916375101E-1	2,415875047E-1	-7,617499679E-2
2,655924600E0	-3,012624979E-1	-7,533624768E-1	6,008749828E-2
2,676086764E0	-2,554749846E-1	-1,097112536E0	-6,228749827E-2
2,696249017E0	-6,462499965E-3	-8,481000066E-1	-1,538625062E-1
2,716411157E0	1,095874980E-1	-2,362249941E-1	-1,377750039E-1
2,736573526E0	-4,492124915E-1	4,927999973E-1	-8,139999956E-2
2,756735750E0	-1,165449977E0	8,758749962E-1	7,287500054E-2
2,776897921E0	-1,120625019E0	1,681624949E-1	3,856875002E-1
2,797060296E0	-3,502124846E-1	-1,098212481E0	5,592125058E-1
2,817222448E0	2,245374918E-1	-1,432337523E0	4,038375020E-1
2,837384589E0	2,490125000E-1	-6,927250028E-1	7,493750006E-2
2,857546820E0	1,915374994E-1	3,576374948E-1	-1,420374960E-1
2,877708988E0	3,925625086E-1	6,470749974E-1	-9,735000134E-2
2,897871142E0	4,457750022E-1	1,340624988E-1	-7,012499962E-3
2,918033534E0	1,989624947E-1	-3,799124956E-1	3,561250120E-2
2,938195671E0	-6,173750013E-2	-3,426499963E-1	5,802499875E-2
2,958357901E0	-6,929999590E-2	7,768750191E-2	7,287500054E-2
2,978520041E0	1,340624988E-1	3,001624942E-1	6,655000150E-2
2,998682209E0	3,011249900E-1	7,136250287E-2	2,928750031E-2
3,018844594E0	2,457125038E-1	-2,265999913E-1	-3,671250120E-2
3,039006813E0	1,594999991E-2	-6,063750014E-2	-8,882500231E-2
3,059168974E0	-1,814999990E-2	5,002250075E-1	-1,431374997E-1
3,079331108E0	2,032250017E-1	9,365124702E-1	-2,441999912E-1
3,099493498E0	5,362499952E-1	7,290250063E-1	-3,826625049E-1
3,119655645E0	6,289250255E-1	1,203124970E-1	-4,688749909E-1
3,139817890E0	3,383874893E-1	-3,267000020E-1	-2,272875011E-1
3,159980046E0	-1,278750040E-2	-3,830749989E-1	2,547875047E-1
3,180142433E0	-2,213750035E-1	-3,480125070E-1	5,655375123E-1
3,200304659E0	-2,725250125E-1	-4,575999975E-1	6,676999927E-1
3,220466722E0	-3,108874857E-1	-6,065124869E-1	6,752625108E-1
3,240628955E0	-4,544374943E-1	-5,108125210E-1	6,039000154E-1
3,260791118E0	-5,886374712E-1	1,223749965E-1	4,464625120E-1
3,280953496E0	-5,343250036E-1	1,173837543E0	1,889249980E-1
3,301115757E0	-3,491125107E-1	1,552649975E0	6,874999963E-3
3,321277877E0	-7,562500238E-2	9,822999835E-1	-2,722499892E-2
3,341440016E0	2,276999950E-1	1,011999995E-1	8,772499859E-2
3,361602399E0	3,128125072E-1	-6,118749976E-1	3,335750103E-1
3,381764553E0	1,872749925E-1	-9,747374654E-1	5,187875032E-1
3,401926784E0	4,455000162E-2	-8,002499938E-1	4,783625007E-1
3,422089173E0	1,648624986E-1	-4,266625047E-1	3,122625053E-1
3,442251088E0	3,106124997E-1	-1,053249985E-1	1,516624987E-1
3,462413466E0	1,340624988E-1	2,894375026E-1	-3,712499980E-3
3,482575622E0	-2,289374918E-1	6,747124791E-1	-1,251250058E-1
3,502737842E0	-5,630624890E-1	8,098750114E-1	-6,861250103E-2
3,522900235E0	-1,013237476E0	6,886000037E-1	5,898749828E-2
3,543062389E0	-1,146199942E0	1,319999993E-1	2,069374919E-1
3,563224529E0	-6,620625257E-1	-7,162374854E-1	3,389374912E-1
3,583386755E0	-1,607374996E-1	-1,287687540E0	1,622499973E-1
3,603548916E0	-6,462499965E-3	-8,799999952E-1	-2,070749998E-1
3,623711285E0	4,138749838E-2	4,034250081E-1	-5,337749720E-1
3,643873519E0	1,148125008E-1	1,434537530E0	-5,933125019E-1
3,664035688E0	-2,887500077E-2	1,477162480E0	-4,943124950E-1
3,684198087E0	-3,342624903E-1	7,353500128E-1	-3,272500038E-1
3,704360255E0	-3,161124885E-1	-2,692250013E-1	-1,049124971E-1
3,724522491E0	-2,352624983E-1	-8,492000103E-1	1,649999991E-2
3,744684660E0	-2,161500007E-1	-8,098750114E-1	-3,355000168E-2
3,764847072E0	7,424999960E-3	-3,117125034E-1	-1,952500045E-1
3,785009217E0	3,404499888E-1	2,287999988E-1	-3,059374988E-1
3,805171399E0	3,319250047E-1	4,703874886E-1	-3,272500038E-1
3,825333557E0	-4,399999976E-3	4,650250077E-1	-3,059374988E-1
3,845495769E0	-2,299000025E-1	3,267000020E-1	-1,665125042E-1
3,865657925E0	-2,150499970E-1	8,304999769E-2	1,539999992E-2
3,885820321E0	-5,431250110E-2	-2,809124887E-1	1,143999994E-1
3,905982471E0	7,975000143E-2	-4,629625082E-1	1,218250021E-1
3,926144688E0	1,478125006E-1	-3,372874856E-1	6,971249729E-2
3,946306846E0	1,776500046E-1	7,246249914E-2	-5,912499968E-3
3,966469022E0	2,160124928E-1	4,214375019E-1	2,612499986E-3
3,986631409E0	1,531749964E-1	4,778124988E-1	6,861250103E-2
4,006793626E0	-2,199999988E-3	2,958999872E-1	1,281500012E-1
4,026955996E0	-1,097249985E-1	6,393750012E-2	1,963499933E-1
4,047118150E0	-7,672499865E-2	-1,168750040E-2	2,378749996E-1
4,067280352E0	8,937499672E-2	7,136250287E-2	2,186249942E-1
4,087442491E0	2,776125073E-1	-6,324999966E-3	2,176624984E-1
4,107604661E0	2,542375028E-1	-1,639000028E-1	2,186249942E-1
4,127767015E0	1,374999993E-2	-1,787499934E-1	2,228875011E-1
4,147929184E0	-2,469500005E-1	-3,932499886E-2	2,675749958E-1
4,168091434E0	-4,417875111E-1	3,946249932E-2	3,506250083E-1
4,188253525E0	-5,406500101E-1	2,199999988E-3	3,793624938E-1
4,208415981E0	-4,789125025E-1	-1,606000066E-1	3,229874969E-1
4,228577901E0	-2,523125112E-1	-3,309625089E-1	2,336124927E-1
4,248740299E0	-2,199999988E-3	-4,054875076E-1	9,941250086E-2
4,268902438E0	2,670249939E-1	-4,587000012E-1	-8,249999583E-2
4,289064646E0	5,447750092E-1	-5,427125096E-1	-1,303499937E-1
4,309226781E0	6,725124717E-1	-6,608250141E-1	-9,638749808E-2
4,329389163E0	5,000874996E-1	-6,693499684E-1	-1,175625026E-1
4,349551389E0	1,967625022E-1	-3,969624937E-1	-1,080750003E-1
4,369713545E0	-9,267500043E-2	6,462499965E-3	-1,251250058E-1
4,389875942E0	-3,832125068E-1	3,522749841E-1	-1,357125044E-1
4,410038096E0	-8,343499899E-1	7,970874906E-1	-1,080750003E-1
4,430200236E0	-1,238875031E0	1,190887451E0	-3,355000168E-2
4,450362482E0	-1,332512498E0	7,438749671E-1	1,539999992E-2
4,470524636E0	-1,018462539E0	1,011999995E-1	-8,249999583E-2
4,490687000E0	-6,055499911E-1	-1,830125004E-1	-1,931875050E-1
4,510849156E0	-2,884750068E-1	-4,235000014E-1	-2,389750034E-1
4,531011392E0	7,012499869E-2	-7,438749671E-1	-2,560249865E-1
4,551173537E0	4,798749983E-1	-1,020524979E0	-2,378749996E-1
4,571335675E0	7,075750232E-1	-1,180162549E0	-2,102375031E-1
4,591498039E0	5,341874957E-1	-1,228012443E0	-1,601874977E-1
4,611660277E0	2,227500081E-2	-9,971500039E-1	-9,955000132E-2
4,631822450E0	-5,736500025E-1	-3,458124995E-1	-2,296249941E-2
4,651984846E0	-8,823375106E-1	6,322249770E-1	8,992499858E-2
4,672147077E0	-7,961249948E-1	1,061087489E0	1,654125005E-1
4,692309233E0	-5,715875030E-1	6,758124828E-1	1,420374960E-1
4,712471612E0	-4,130499959E-1	-9,624999948E-4	1,649999991E-2
4,732633767E0	-2,022625059E-1	-6,489999592E-2	-1,017499994E-2
4,752796008E0	9,679999948E-2	1,746249944E-1	3,712499980E-3
4,772958161E0	4,511374831E-1	1,234750003E-1	-1,539999992E-2
4,793120534E0	6,682500243E-1	-3,320625126E-1	-1,759999990E-2
4,813282703E0	5,554999709E-1	-8,108375072E-1	-7,012499962E-3
4,833444934E0	2,692250013E-1	-8,098750114E-1	-6,764999777E-2
4,853607089E0	1,010624990E-1	-9,363749623E-2	-1,473999918E-1
4,873769473E0	1,425874978E-1	6,641250253E-1	-1,325500011E-1
4,893931666E0	1,606000066E-1	7,310875058E-1	-4,523750022E-2
4,914093897E0	-2,246749997E-1	8,084999770E-2	-2,749999985E-3
4,934256041E0	-8,322874904E-1	-3,947624862E-1	8,456250280E-2
4,954418419E0	-1,190887451E0	-5,637500063E-2	1,622499973E-1
4,974580566E0	-9,642875195E-1	5,022875071E-1	2,282499894E-2
4,994743024E0	-2,714250088E-1	4,703874886E-1	-3,645125031E-1
5,014904949E0	4,596624970E-1	4,448125064E-1	-7,125250101E-1
5,035067334E0	9,151999950E-1	5,055875182E-1	-7,486875057E-1
5,055229488E0	1,065212488E0	2,352624983E-1	-5,603125095E-1
5,075391729E0	1,023687482E0	-3,830749989E-1	-2,527250051E-1
5,095554097E0	9,246875048E-1	-9,257875085E-1	9,102500230E-2
5,115716255E0	7,396125197E-1	-1,302537441E0	3,964124918E-1
5,135878409E0	2,351250052E-1	-1,603662491E0	6,699000001E-1
5,156040642E0	-5,704874992E-1	-1,164212465E0	8,773875237E-1
5,176202786E0	-9,685499668E-1	4,262499884E-2	1,051874995E0
5,196365179E0	-6,290624738E-1	6,289250255E-1	1,120074987E0
5,216527418E0	-1,182499994E-2	1,926375031E-1	8,497499824E-1
5,236689569E0	4,585624933E-1	-2,160124928E-1	3,113000095E-1
5,256851961E0	9,684125185E-1	-5,004999787E-2	4,413750023E-2
5,277014112E0	1,438662529E0	1,533125043E-1	2,172499895E-2
5,297176334E0	1,435500026E0	-4,358749837E-2	4,729999974E-2
5,317338487E0	8,438374996E-1	-3,671250045E-1	1,292500049E-1
5,337500636E0	-6,710000336E-2	-2,543750107E-1	2,590500116E-1
5,357663019E0	-5,651249886E-1	4,225375056E-1	3,761999905E-1
5,377825257E0	-3,448500037E-1	5,640249848E-1	3,485625088E-1
5,397987348E0	-1,703625023E-1	3,172124922E-1	-2,722499892E-2
5,418149598E0	-6,715499759E-1	7,343875170E-1	-3,368749917E-1
5,438311980E0	-1,199412465E0	1,415424943E0	-2,154625058E-1
5,458474151E0	-1,326050043E0	1,670899987E0	-1,113750041E-2
5,478636366E0	-7,545999885E-1	1,324949980E0	9,528750181E-2
5,498798527E0	3,096500039E-1	4,629625082E-1	-1,333750039E-2
5,518960926E0	9,374749660E-1	-3,724874854E-1	-2,144999951E-1
5,539123072E0	1,132174969E0	-7,715125084E-1	-1,750375032E-1
5,559285310E0	1,120487452E0	-5,905625224E-1	-1,463000029E-1
5,579447464E0	1,018324971E0	-1,542750001E-1	-1,612875015E-1
5,599609632E0	8,885250092E-1	2,523125112E-1	-1,123374999E-1
5,619772011E0	6,736124754E-1	2,927374840E-1	3,024999984E-2
5,639934252E0	2,180749923E-1	-5,527500063E-2	1,974499971E-1
5,660096392E0	-4,417875111E-1	-3,777124882E-1	3,975124955E-1
5,680258779E0	-9,919250011E-1	-1,138499975E-1	6,241124868E-1
5,700421030E0	-1,263350010E0	9,631875157E-1	7,071624994E-1
5,720583164E0	-9,833999872E-1	1,858175039E0	5,486249924E-1
5,740745315E0	-2,461249940E-2	1,326050043E0	3,825249970E-1
5,760907478E0	8,746374846E-1	1,735250056E-1	1,813624948E-1
5,781069846E0	1,140699983E0	-2,351250052E-1	-8,249999583E-2
5,801232075E0	9,545249939E-1	2,131249942E-2	-2,452999949E-1
5,821394214E0	5,746124983E-1	4,692874849E-1	-2,475000024E-1
5,841556607E0	-1,277374923E-1	9,259250164E-1	-1,368124932E-1
5,861718760E0	-8,780750036E-1	1,220724940E0	-5,912499968E-3
5,881880996E0	-1,157887459E0	1,022724986E0	1,303499937E-1
5,902043123E0	-8,408125043E-1	4,299624860E-1	2,006125003E-1
5,922205506E0	-4,438500106E-1	-2,308624983E-1	1,846625060E-1
5,942367636E0	-2,810499966E-1	-5,618249774E-1	1,601874977E-1
5,962529804E0	-6,819999963E-2	-2,915000021E-1	1,346125007E-1
5,982691960E0	4,937624931E-1	3,189999983E-2	1,016125008E-1
6,002854156E0	1,088587523E0	-1,372250021E-1	1,112374961E-1
6,023016315E0	1,306800008E0	-5,608624816E-1	1,835625023E-1
6,043178714E0	1,089687467E0	-8,503000140E-1	2,217874974E-1
6,063340868E0	5,362499952E-1	-8,108375072E-1	1,644500047E-1
6,083503073E0	-1,267749965E-1	-3,691875041E-1	3,877500072E-2
6,103665472E0	-5,843750238E-1	5,193374753E-1	-1,016125008E-1
6,123827630E0	-7,152749896E-1	1,506999969E0	-1,644500047E-1
6,143989866E0	-6,247999668E-1	1,674062490E0	-1,516624987E-1
6,164152015E0	-4,779500067E-1	1,091887474E0	-2,144999951E-1
6,184314160E0	-2,384250015E-1	3,724874854E-1	-3,517250121E-1
6,204476544E0	3,404499888E-1	-2,330625057E-1	-3,506250083E-1
6,224638712E0	7,544624805E-1	-5,788750052E-1	-4,134624898E-1
6,244800943E0	9,044749737E-1	-5,171374679E-1	-5,710374713E-1
6,264963328E0	9,864249825E-1	-2,299000025E-1	-6,689375043E-1
6,285125467E0	8,927875161E-1	-1,801249944E-2	-6,283749938E-1
6,305287698E0	4,809750021E-1	1,991000026E-1	-5,220875144E-1
6,325449799E0	-1,777874976E-1	6,237000227E-1	-3,667125106E-1
6,345612034E0	-5,076500177E-1	1,026987553E0	-1,303499937E-1
6,365774171E0	-3,565374911E-1	9,833999872E-1	1,314499974E-1
6,385936543E0	-1,388750039E-2	3,607999980E-1	2,345750034E-1
6,406098702E0	1,552374959E-1	-1,947000027E-1	1,813624948E-1
6,426260870E0	1,531749964E-1	-2,745875120E-1	2,154625058E-1
6,446423117E0	1,244374961E-1	0,000000000E0	3,367374837E-1
6,466585505E0	5,843750015E-2	2,054249942E-1	4,655750096E-1
6,486747668E0	-3,836249933E-2	1,072499994E-2	5,241500139E-1
6,506909901E0	-1,192125008E-1	-2,299000025E-1	5,262125134E-1
6,527072289E0	-1,533125043E-1	-3,309625089E-1	5,028374791E-1
6,547234442E0	-8,731249720E-2	-2,191749960E-1	4,740999937E-1
6,567396663E0	1,594999991E-2	5,541250110E-2	3,932499886E-1
6,587558834E0	5,953750014E-2	3,064875007E-1	2,877874970E-1
6,607721231E0	2,007500082E-2	4,331249893E-1	2,293500006E-1
6,627883385E0	-1,149500012E-1	3,991625011E-1	2,271499932E-1
6,648045611E0	-2,426874936E-1	2,319625020E-1	2,729375064E-1
6,668207687E0	-3,012624979E-1	3,299999982E-2	3,602499962E-1
6,688369848E0	-3,565374911E-1	-5,527500063E-2	3,995749950E-1
6,708532313E0	-3,715249896E-1	-3,299999982E-2	3,708375096E-1
6,728694247E0	-2,884750068E-1	1,086250022E-1	2,792625129E-1
6,748856693E0	-2,150499970E-1	2,586374879E-1	1,761374921E-1
6,769018828E0	-2,139499933E-1	2,714250088E-1	1,494625062E-1
6,789180978E0	-1,724250019E-1	6,916250288E-2	1,889249980E-1
6,809343117E0	-5,115000159E-2	-1,926375031E-1	2,527250051E-1
6,829505492E0	4,124999978E-3	-3,745499849E-1	2,228875011E-1
6,849667649E0	5,211250111E-2	-3,235374987E-1	1,260875016E-1
6,869829877E0	1,222374961E-1	-7,864999771E-2	3,451250121E-2
6,889992041E0	1,947000027E-1	1,479499936E-1	-5,169999972E-2
6,910154423E0	1,116499975E-1	1,948374957E-1	-1,101374999E-1
6,930316562E0	-1,214125007E-1	2,043250054E-1	-9,735000134E-2
6,950478805E0	-4,459125102E-1	2,532750070E-1	-2,296249941E-2
6,970640973E0	-7,397499681E-1	3,469125032E-1	7,493750006E-2
6,990803339E0	-9,631875157E-1	3,628624976E-1	1,292500049E-1
7,010965497E0	-1,079237461E0	1,479499936E-1	1,101374999E-1
7,031127654E0	-1,015300035E0	-8,717499673E-2	1,539999992E-2
7,051289815E0	-6,928625107E-1	-1,978625059E-1	-1,846625060E-1
7,071452041E0	-1,054624990E-1	-2,340250015E-1	-3,793624938E-1
7,091614431E0	3,319250047E-1	-2,840749919E-1	-5,400999784E-1
7,111776568E0	2,937000096E-1	-2,340250015E-1	-6,837875247E-1
7,131938815E0	7,424999960E-3	7,878749818E-2	-7,753624916E-1
7,152100983E0	2,138125002E-1	4,342249930E-1	-6,507874727E-1
7,172263443E0	7,140374780E-1	3,416875005E-1	-4,464625120E-1
7,192425515E0	7,192624807E-1	-2,766500115E-1	-2,612499893E-1
7,212587655E0	2,457125038E-1	-7,236624956E-1	-8,882500231E-2
7,232749893E0	-4,045250118E-1	-3,511750102E-1	-2,612499893E-2
7,252912060E0	-5,928999782E-1	7,512999773E-1	5,046249926E-2
7,273074448E0	-1,479499936E-1	1,225950003E0	3,005749881E-1
7,293236568E0	2,883374989E-1	5,385875106E-1	4,900499880E-1
7,313398825E0	2,000624985E-1	-5,777750015E-1	4,038375020E-1
7,333560979E0	8,401250094E-2	-9,864249825E-1	3,932499886E-1
7,353723357E0	1,159124970E-1	-7,342500091E-1	3,537875116E-1
7,373885504E0	2,436500043E-1	-8,621250093E-2	1,505624950E-1
7,394047646E0	4,203374982E-1	4,268000126E-1	-1,420374960E-1
7,414209891E0	3,691875041E-1	6,289250255E-1	-4,006749988E-1
7,434372036E0	6,063750014E-2	6,215000153E-1	-5,273125172E-1
7,454534433E0	-2,597374916E-1	5,257999897E-1	-4,603500068E-1
7,474696607E0	-5,565999746E-1	4,140124917E-1	-3,485625088E-1
7,494858867E0	-8,514000177E-1	3,724874854E-1	-2,857249975E-1
7,515021247E0	-1,045137525E0	3,607999980E-1	-2,272875011E-1
7,535183488E0	-9,099749923E-1	3,075875044E-1	-1,303499937E-1
7,555345548E0	-4,609000087E-1	1,128875017E-1	-1,218250021E-1
7,575507693E0	7,755000144E-2	-2,382874936E-1	-1,942874938E-1
7,595669925E0	5,554999709E-1	-5,725499988E-1	-2,102375031E-1
7,615832083E0	9,300500154E-1	-7,683500051E-1	-1,644500047E-1
7,635994468E0	1,103437543E0	-7,566624880E-1	-5,059999973E-2
7,656156612E0	1,011999965E0	-5,905625224E-1	2,431000024E-1
7,676318872E0	4,405499995E-1	-5,692499876E-1	4,826250076E-1
7,696481036E0	-4,173125029E-1	-1,250424981E0	4,207500070E-2
7,716643405E0	-9,748749733E-1	-1,079100013E0	-4,219875038E-1
7,736805548E0	-8,610249758E-1	4,725874960E-1	-5,465624928E-1
7,756967776E0	-3,767499924E-1	2,202887535E0	-3,485625088E-1
7,777129916E0	-6,503750086E-1	2,214712381E0	-2,527250051E-1
7,797292280E0	-1,151562452E0	1,039775014E0	-3,357749879E-1
7,817454454E0	-9,844999909E-1	-5,843750015E-2	-2,304500043E-1
7,837616613E0	-3,852750063E-1	-8,204625249E-1	-2,502499893E-2
7,857778757E0	1,882375032E-1	-1,074837446E0	-1,966249943E-2
7,877940988E0	6,799374819E-1	-1,090787530E0	-1,175625026E-1
7,898103381E0	1,237637520E0	-9,268875122E-1	-2,463999987E-1
7,918265548E0	1,675987482E0	-6,875000000E-1	-3,304125071E-1
7,938427765E0	1,757937431E0	-4,203374982E-1	-3,921499848E-1
7,958589925E0	1,439762473E0	-8,937499672E-2	-4,102999866E-1
7,978752083E0	6,278250217E-1	4,288625121E-1	-3,932499886E-1
7,998914476E0	-4,299624860E-1	1,241899967E0	-2,250874937E-1
8,019076644E0	-1,171774983E0	1,666637540E0	2,623499930E-1
8,039238810E0	-1,605999947E0	8,630874753E-1	8,199124932E-1
8,059401026E0	-1,559112549E0	-5,554999709E-1	1,052974939E0
8,079563413E0	-1,071674943E0	-1,303637505E0	9,721249938E-1
8,099725582E0	-3,948999941E-1	-1,294012547E0	7,976375222E-1
8,119887731E0	3,011249900E-1	-9,737749696E-1	5,528874993E-1
8,140049978E0	7,598249912E-1	-5,438125134E-1	2,250874937E-1
8,160212360E0	9,545249939E-1	-1,159124970E-1	-5,059999973E-2
8,180374509E0	9,693750143E-1	2,278375030E-1	-9,212499857E-2
8,200536731E0	7,268249989E-1	3,873375058E-1	9,624999762E-2
8,220698889E0	2,212374955E-1	2,447499931E-1	2,729375064E-1
8,240861045E0	-1,512500048E-1	1,863124967E-1	2,751374841E-1
8,261023424E0	-1,704999991E-2	3,469125032E-1	3,697375059E-1
8,281185581E0	1,585374922E-1	3,980624974E-1	7,209125161E-1
8,301347798E0	-2,980999947E-1	5,417500138E-1	1,088174939E0
8,321509930E0	-9,961875081E-1	5,917999744E-1	1,145650029E0
8,341672079E0	-1,382424951E0	-1,484999992E-2	4,144249856E-1
8,361834454E0	-1,283562541E0	-1,553750038E-1	-4,518249929E-1
8,381996618E0	-5,363875031E-1	5,044875145E-1	-4,720374942E-1
8,402158850E0	3,063499928E-1	1,533125043E-1	4,413750023E-2
8,422321211E0	3,628624976E-1	-6,927250028E-1	3,687750101E-1
8,442483351E0	-5,335000157E-2	-1,361112475E0	5,156250000E-1
8,462645486E0	-3,129499853E-1	-1,866562486E0	3,218874931E-1
8,482807640E0	-9,157499671E-2	-1,845250010E0	1,229249984E-1
8,502969806E0	4,043875039E-1	-8,386124969E-1	3,719374835E-1
8,523132023E0	4,448125064E-1	2,734875083E-1	9,497125149E-1
8,543294407E0	-3,836249933E-2	6,087124944E-1	8,465874791E-1
8,563456559E0	-4,842749834E-1	-1,074837446E0	-9,487500191E-1
8,583618727E0	-4,012250006E-1	-1,919775009E0	-1,976837516E0
8,603781184E0	3,617624938E-1	-4,468750060E-1	-1,438249946E0
8,623943356E0	6,778749824E-1	1,783650041E0	-8,274750113E-1
8,644105621E0	-4,927999973E-1	2,259399891E0	-7,497875094E-1
8,664267775E0	-1,538900018E0	1,461212516E0	-6,518874764E-1
8,684430146E0	-1,329212546E0	3,181749880E-1	-3,337124884E-1
8,704592304E0	-2,501125038E-1	-2,510749996E-1	1,229249984E-1
8,724754473E0	4,096125066E-1	4,372499883E-2	7,103250027E-1
8,744916707E0	-3,726249933E-2	6,450124979E-1	1,103024960E0
8,765078876E0	-8,237624764E-1	-1,830125004E-1	2,197249979E-1
8,785241261E0	-7,642250061E-1	-9,226250052E-1	-6,817250252E-1
8,805403415E0	-2,461249940E-2	-6,065124869E-1	-8,285750151E-1
8,825565563E0	6,267250180E-1	-8,717499673E-2	-7,551500201E-1
8,845727794E0	4,426124990E-1	3,958624899E-1	-8,519499898E-1
8,865889868E0	-8,098749816E-2	7,088124752E-1	-6,231499910E-1
8,886052083E0	1,989624947E-1	6,843374968E-1	1,579875052E-1
8,906214450E0	5,416125059E-1	3,596999943E-1	7,720624804E-1
8,926376583E0	7,864999771E-2	1,511124969E-1	1,403187513E0
8,946538823E0	-6,470749974E-1	5,799750090E-1	1,886224985E0
8,966700946E0	-1,123924971E0	9,047500044E-2	1,385037541E0
8,986863090E0	-9,472374916E-1	-9,365124702E-1	5,230500102E-1
9,007025585E0	-1,852124929E-1	-1,509062529E0	-2,197249979E-1
9,027187741E0	5,416125059E-1	-1,179062486E0	-6,337375045E-1
9,047349881E0	1,085425019E0	-1,670625061E-1	-6,199874878E-1
9,067512271E0	1,156649947E0	4,023250043E-1	-5,847874880E-1
9,087674419E0	3,925625086E-1	1,131350040E0	-2,762374878E-1
9,107836655E0	-1,405249983E-1	1,495312452E0	2,953499854E-1
9,127998823E0	-1,924999990E-2	6,055499911E-1	9,976999760E-1
9,148161213E0	3,925625086E-1	-7,555624843E-1	1,393562436E0
9,168323395E0	6,778749824E-1	-1,194049954E0	1,367987514E0
9,188485535E0	7,437375188E-1	-5,948249698E-1	1,112650037E0
9,208647784E0	5,681499839E-1	1,087625027E0	1,634050012E0
9,228809880E0	-2,363625020E-1	2,355099916E0	1,611775041E0
9,248972357E0	-1,136712551E0	2,628999949E-1	3,526875079E-1
9,269134496E0	-8,630874753E-1	-4,778124988E-1	-5,284125209E-1
9,289296674E0	4,468750060E-1	5,246999860E-1	-1,102062464E0
9,309458819E0	1,195012450E0	8,450750113E-1	-1,662787437E0
9,329621028E0	6,736124754E-1	6,470749974E-1	-1,820362449E0
9,349783171E0	-3,214749992E-1	4,151124954E-1	-1,571349978E0
9,369945540E0	-1,283562541E0	-2,021249980E-1	-1,007325053E0
9,390107703E0	-1,039775014E0	-3,352249861E-1	-2,378749996E-1
9,410269869E0	-3,023625016E-1	-5,160375237E-1	8,030000329E-2
9,430432095E0	9,033749998E-2	-8,810999990E-1	4,413750023E-2
9,450594462E0	3,415499926E-1	-8,810999990E-1	1,505624950E-1
9,470756606E0	3,298625052E-1	-7,768750191E-1	3,719374835E-1
9,490918810E0	1,053249985E-1	-1,124887466E0	2,963125110E-1
9,511080978E0	-5,362499971E-3	-1,753812432E0	-1,878249943E-1
9,531243351E0	1,574375033E-1	-1,867662549E0	-7,347999811E-1
9,551405496E0	4,255625010E-1	-1,228012443E0	-1,039224982E0
9,571567649E0	8,375124931E-1	2,990624905E-1	-1,059437513E0
9,591729807E0	9,129999876E-1	1,537799954E0	-9,689624906E-1
9,611892045E0	3,139125109E-1	1,283424973E0	-7,008374929E-1
9,632054440E0	-4,427500069E-1	3,619000018E-1	-1,633500010E-1
9,652216592E0	-8,184000254E-1	3,409999982E-2	4,314749837E-1
9,672379053E0	-6,908000112E-1	4,140124917E-1	1,145650029E0
9,692540978E0	-7,673875093E-1	5,512375236E-1	1,586199999E0
9,712703122E0	-1,129150033E0	-2,447499931E-1	9,741874933E-1
9,732865486E0	-7,981874943E-1	-7,034500241E-1	2,928750031E-2
9,753027640E0	2,553375065E-1	-1,531749964E-1	-3,591499925E-1
9,773189882E0	1,137537479E0	3,671250045E-1	-5,539875031E-1
9,793352036E0	1,306800008E0	6,129750013E-1	-6,402000189E-1
9,813514433E0	8,608874679E-1	6,800749898E-1	-4,325749874E-1
9,833676582E0	3,276624978E-1	5,343250036E-1	7,397499681E-2
9,853838738E0	-3,203750029E-2	2,447499931E-1	6,252124906E-1
9,874000964E0	-2,980999947E-1	-6,063750014E-2	8,890749812E-1
9,894163108E0	-4,034250081E-1	-5,004999787E-2	7,709624767E-1
9,914325490E0	-2,565749884E-1	3,778499961E-1	5,581125021E-1
9,934487636E0	3,286249936E-2	8,844000101E-1	4,464625120E-1
9,954649877E0	1,531749964E-1	9,481999874E-1	3,856875002E-1
9,974812045E0	7,438749820E-2	7,512999773E-1	2,792625129E-1
9,994974529E0	7,864999771E-2	7,631250024E-1	2,580874860E-1
1,001513663E1	1,531749964E-1	8,673499823E-1	2,547875047E-1
1,003529887E1	2,063875049E-1	9,461374879E-1	2,666125000E-1
1,005546100E1	1,350249946E-1	9,077749848E-1	2,888875008E-1
1,007562316E1	-4,798749834E-2	7,790749669E-1	3,761999905E-1
1,009578554E1	-2,821500003E-1	6,268625259E-1	4,921124876E-1
1,011594767E1	-6,216375232E-1	5,065500140E-1	5,368000269E-1
1,013610989E1	-9,589250088E-1	5,289624929E-1	4,570499957E-1
1,015627207E1	-1,136712551E0	2,714250088E-1	2,655124962E-1
1,017643420E1	-1,211099982E0	-2,723875046E-1	1,707749963E-1
1,019659659E1	-1,176037550E0	-6,906625032E-1	1,442375034E-1
1,021675874E1	-1,015300035E0	-7,108749747E-1	1,335124969E-1
1,023692097E1	-9,227625132E-1	-5,458750129E-1	6,435000151E-2
1,025708312E1	-8,621249795E-1	-4,863374829E-1	-1,165999994E-1
1,027724548E1	-8,749125004E-1	-6,448749900E-1	-3,730374873E-1
1,029740771E1	-8,536000252E-1	-6,107749939E-1	-3,548874855E-1
1,031756986E1	-7,397499681E-1	-3,415499926E-1	-1,112374961E-1
1,033773200E1	-5,300624967E-1	-1,095874980E-1	-3,891250119E-2
1,035789439E1	-2,523125112E-1	-4,358749837E-2	-1,868624985E-1
1,037805656E1	1,414874941E-1	2,597374916E-1	-3,815625012E-1
1,039821881E1	2,223374993E-1	3,289000094E-1	-4,729999900E-1
1,041838095E1	-2,139499933E-1	-1,776500046E-1	-3,730374873E-1
1,043854334E1	-6,822749972E-1	-7,555624843E-1	-1,559250057E-1
1,045870551E1	-6,865375042E-1	-8,173000216E-1	-3,987500072E-2
1,047886774E1	-3,757874966E-1	-4,703874886E-1	-1,027124971E-1
1,049902989E1	-2,065249979E-1	-2,543750107E-1	-3,070375025E-1
1,051919228E1	-1,394249946E-1	-3,042874932E-1	-4,251500070E-1
1,053935444E1	6,379999965E-2	-2,245374918E-1	-4,507249892E-1
1,055951667E1	3,426499963E-1	-6,379999965E-2	-3,995749950E-1
1,057967875E1	4,926624894E-1	1,168750040E-2	-3,337124884E-1
1,059984096E1	5,874000192E-1	9,790000319E-2	-2,591874897E-1
1,062000315E1	6,778749824E-1	3,544749916E-1	-1,868624985E-1
1,064016554E1	5,894625187E-1	6,023874879E-1	-1,453374922E-1
1,066032776E1	2,468124926E-1	4,768500030E-1	-2,296249941E-2
1,068048991E1	-8,621250093E-2	-2,131249942E-2	2,931500077E-1
1,070065232E1	-3,066250086E-1	-6,098124981E-1	6,804875135E-1
1,072081446E1	-4,023250043E-1	-7,288874984E-1	6,921749711E-1
1,074097663E1	-4,353249967E-1	-2,202749997E-1	3,964124918E-1
1,076113884E1	-5,967500061E-2	6,374499798E-1	1,164624989E-1
1,078130098E1	3,649249971E-1	8,738124967E-1	-3,148749843E-2
1,080146314E1	3,117125034E-1	3,118500113E-1	-1,038125008E-1
1,082162554E1	-1,490499973E-1	-3,469125032E-1	-1,952500045E-1
1,084178770E1	-2,714250088E-1	-2,276999950E-1	-3,443000019E-1
1,086194993E1	-9,377499670E-2	5,747500062E-2	-4,177249968E-1
1,088211208E1	-2,267374992E-1	-2,926000059E-1	-3,059374988E-1
1,090227445E1	-6,800749898E-1	-9,662125111E-1	4,729999974E-2
1,092243669E1	-6,023874879E-1	-8,300874829E-1	2,985124886E-1
1,094259882E1	-7,782500237E-2	-1,010624990E-1	5,046249926E-2
1,096276097E1	3,702875078E-1	4,714874923E-1	-5,050374866E-1
1,098292337E1	6,458374858E-1	4,842749834E-1	-8,817874789E-1
1,100308554E1	8,151000142E-1	3,587374985E-1	-9,594749808E-1
1,102324767E1	9,235875010E-1	3,278000057E-1	-8,018999696E-1
1,104340989E1	8,523625135E-1	1,713249981E-1	-6,039000154E-1
1,106357204E1	5,809375048E-1	-9,899999946E-2	-4,379374981E-1
1,108373450E1	3,287625015E-1	-1,234750003E-1	-3,007124960E-1
1,110389666E1	8,401250094E-2	-2,653750032E-2	-2,634499967E-1
1,112405905E1	-2,448875010E-1	-7,342500240E-2	-1,357125044E-1
1,114422119E1	-5,608624816E-1	-3,958624899E-1	-8,139999956E-2
1,116438340E1	-4,939000010E-1	-3,022249937E-1	-1,985500008E-1
1,118454554E1	-1,099999994E-3	3,587374985E-1	-2,037750036E-1
1,120470772E1	2,371875048E-1	5,853375196E-1	8,346249908E-2
1,122487009E1	-4,054875076E-1	-5,895999670E-1	3,282124996E-1
1,124503224E1	-6,014249921E-1	-1,426012516E0	4,379374981E-1
1,126519447E1	4,455000162E-2	-6,597250104E-1	2,910875082E-1
1,128535664E1	5,097125173E-1	5,002250075E-1	-4,413750023E-2
1,130551880E1	2,468124926E-1	5,576999784E-1	-2,421374917E-1
1,132568118E1	-6,503749639E-2	6,710000336E-2	-8,992499858E-2
1,134584334E1	-8,731249720E-2	-1,958000064E-1	1,058750004E-1
1,136600550E1	1,073874980E-1	5,431250110E-2	1,966249943E-2
1,138616773E1	2,553375065E-1	3,107500076E-1	-2,336124927E-1
1,140632989E1	1,882375032E-1	2,873750031E-1	-3,613499999E-1
1,142649228E1	6,696250290E-2	1,192125008E-1	-2,942500114E-1
1,144665443E1	5,224999972E-3	9,624999948E-3	-1,293874979E-1
1,146681665E1	3,506249934E-2	4,578749835E-2	-4,633750021E-2
1,148697904E1	3,932499886E-2	5,115000159E-2	-8,992499858E-2
1,150714128E1	6,696250290E-2	6,462499965E-3	-1,612875015E-1
1,152730341E1	1,765500009E-1	1,704999991E-2	-1,783374995E-1
1,154746558E1	2,574000061E-1	-1,058750041E-2	-1,633500010E-1
1,156762796E1	2,032250017E-1	-6,806249917E-2	-1,271875054E-1
1,158779014E1	1,062875018E-1	-2,227500081E-2	-1,058750004E-1
1,160795236E1	2,653750032E-2	1,000999957E-1	-1,080750003E-1
1,162811450E1	-3,836249933E-2	1,926375031E-1	-8,992499858E-2
1,164827689E1	-1,160499975E-1	1,256749928E-1	-3,575000167E-2
1,166843881E1	-2,224749923E-1	-1,031249985E-1	-2,818750031E-2
1,168860119E1	-1,469874978E-1	-1,670625061E-1	-1,123374999E-1
1,170876343E1	1,478125006E-1	1,095874980E-1	-1,920875013E-1
1,172892558E1	1,713249981E-1	1,724250019E-1	-1,803999990E-1
1,174908797E1	-1,703625023E-1	-2,543750107E-1	-3,355000168E-2
1,176925013E1	-3,587374985E-1	-5,863000154E-1	1,559250057E-1
1,178941228E1	-1,874125004E-1	-3,532375097E-1	1,260875016E-1
1,180957475E1	-3,629999980E-2	-6,173750013E-2	-3,038750030E-2
1,182973667E1	-1,405249983E-1	-9,363749623E-2	-1,718750000E-1
1,184989884E1	1,138499975E-1	-1,911249943E-2	-3,081375062E-1
1,187006123E1	6,331874728E-1	3,235374987E-1	-4,177249968E-1
1,189022346E1	8,512625098E-1	6,758124828E-1	-5,198875070E-1
1,191038561E1	4,820750058E-1	5,619624853E-1	-4,709374905E-1
1,193054799E1	-1,032624990E-1	1,340624988E-1	-1,783374995E-1
1,195071015E1	-3,724874854E-1	-2,180749923E-1	2,026749998E-1
1,197087228E1	-3,331624866E-1	-2,521750033E-1	3,165250123E-1
1,199103450E1	-2,958999872E-1	-4,895000160E-2	2,111999989E-1
1,201119689E1	-3,522749841E-1	2,131249942E-2	1,005124971E-1
1,203135904E1	-2,193125039E-1	-1,201749966E-1	-2,296249941E-2
1,205152128E1	1,659625024E-1	-9,143749624E-2	-2,144999951E-1
1,207168343E1	5,310249925E-1	1,713249981E-1	-3,954499960E-1
1,209184558E1	4,692874849E-1	2,682625055E-1	-3,474625051E-1
1,211200799E1	-2,557500079E-2	-1,724250019E-1	-1,889249980E-1
1,213217014E1	-3,235374987E-1	-4,915624857E-1	-3,148749843E-2
1,215233236E1	-1,692624986E-1	-2,128500044E-1	-6,764999777E-2
1,217249475E1	4,248749837E-2	2,235749960E-1	-1,420374960E-1
1,219265669E1	-3,836249933E-2	1,319999993E-1	-2,048749924E-1
1,221281906E1	-2,076250017E-1	-1,670625061E-1	-2,250874937E-1
1,223298129E1	3,506249934E-2	-3,506249934E-2	-2,771999836E-1
1,225314345E1	3,319250047E-1	2,415875047E-1	-1,815000027E-1
1,227330560E1	1,383250058E-1	-1,702249944E-1	-7,933750004E-2
1,229346798E1	-6,710000336E-2	-6,852999926E-1	-7,191249728E-2
1,231363022E1	2,245374918E-1	-2,798124850E-1	-3,187249899E-1
1,233379237E1	5,373499990E-1	6,172375083E-1	-3,943499923E-1
1,235395450E1	3,660250008E-1	6,683874726E-1	-3,016749918E-1
1,237411689E1	-1,968999952E-1	-2,011625022E-1	-1,707749963E-1
1,239427905E1	-3,001624942E-1	-4,490749836E-1	-1,649999991E-2
1,241444126E1	2,653750032E-2	6,710000336E-2	-7,933750004E-2
1,243460342E1	2,564375103E-1	3,958624899E-1	-2,315499932E-1
1,245476579E1	2,319625020E-1	8,731249720E-2	-2,686749995E-1
1,247492794E1	4,248749837E-2	-4,086500108E-1	-1,909874976E-1
1,249509011E1	7,122500241E-2	-4,767124951E-1	-1,559250057E-1
1,251525233E1	1,127500013E-1	-3,565374911E-1	-2,239875048E-1
1,253541471E1	-8,524999954E-3	-3,096500039E-1	-3,272500038E-1
1,255557685E1	-1,618375033E-1	-3,096500039E-1	-3,750999868E-1
1,257573902E1	-1,427250057E-1	-2,585000098E-1	-2,686749995E-1
1,259590128E1	-6,710000336E-2	-2,382874936E-1	-1,878249943E-1
1,261606346E1	-6,077500060E-2	-1,563374996E-1	-2,358125001E-1
1,263622582E1	-4,578749835E-2	7,136250287E-2	-2,890250087E-1
1,265638798E1	-3,726249933E-2	2,362249941E-1	-3,368749917E-1
1,267655021E1	-1,171500012E-1	5,321250111E-2	-3,240875006E-1
1,269671235E1	-9,377499670E-2	-2,712875009E-1	-1,835625023E-1
1,271687451E1	1,190750003E-1	-4,223999977E-1	-3,781250119E-2
1,273703690E1	2,946625054E-1	-3,159750104E-1	-2,612499893E-2
1,275719904E1	2,692250013E-1	-1,106875017E-1	-1,132999957E-1
1,277736128E1	7,122500241E-2	-4,248749837E-2	-1,505624950E-1
1,279752366E1	-1,746249944E-1	-1,394249946E-1	-6,008749828E-2
1,281768583E1	-2,736249864E-1	-2,234375030E-1	4,207500070E-2
1,283784799E1	-3,086875081E-1	-1,926375031E-1	7,397499681E-2
1,285801021E1	-3,033249974E-1	-1,627999991E-1	7,823749632E-2
1,287817234E1	-2,246749997E-1	-3,139125109E-1	2,172499895E-2
1,289833449E1	-1,351625025E-1	-4,692874849E-1	-6,228749827E-2
1,291849689E1	1,911249943E-2	-2,894375026E-1	-1,027124971E-1
1,293865905E1	8,607500046E-2	4,262499977E-3	-2,134000063E-1
1,295882127E1	1,105500013E-1	2,171124965E-1	-3,463625014E-1
1,297898366E1	9,996250272E-2	1,852124929E-1	-2,974124849E-1
1,299914581E1	-4,152499884E-2	-1,394249946E-1	-1,006499976E-1
1,301930797E1	-2,458499968E-1	-4,735499918E-1	9,735000134E-2
1,303947018E1	-2,947999835E-1	-4,894999862E-1	2,505249977E-1
1,305963233E1	-2,586374879E-1	-3,244999945E-1	2,186249942E-1
1,307979450E1	-1,097249985E-1	-9,487500414E-3	-2,818750031E-2
1,309995689E1	1,383250058E-1	3,511750102E-1	-2,495625019E-1
1,312011913E1	3,393499851E-1	5,554999709E-1	-3,209249973E-1
1,314028127E1	2,490125000E-1	2,894375026E-1	-2,719750106E-1
1,316044364E1	1,659625024E-1	-2,095499933E-1	-2,017125040E-1
1,318060582E1	3,649249971E-1	-9,679999948E-2	-8,043749630E-2
1,320076829E1	4,351874888E-1	2,862749994E-1	1,333750039E-2
1,322093021E1	9,776250273E-2	5,211250111E-2	3,451250121E-2
1,324109236E1	-9,377499670E-2	-4,192374945E-1	5,499999970E-4
1,326125475E1	1,947000027E-1	-1,201749966E-1	-3,244999796E-2
1,328141692E1	2,138125002E-1	3,086875081E-1	-1,155000031E-1
1,330157916E1	-7,246249914E-2	2,096875012E-1	-1,846625060E-1
1,332174133E1	-3,140499890E-1	-6,489999592E-2	-1,377750039E-1
1,334190347E1	-2,267374992E-1	-2,873750031E-2	-8,249999583E-2
1,336206587E1	1,801249944E-2	2,745875120E-1	-4,743750021E-2
1,338222802E1	-2,131249942E-2	2,532750070E-1	2,392499894E-2
1,340239024E1	-3,108874857E-1	-1,841125041E-1	7,287500054E-2
1,342255261E1	-3,619000018E-1	-3,810124993E-1	1,687124968E-1
1,344271477E1	-2,608374953E-1	-2,000624985E-1	2,015749961E-1
1,346287693E1	-2,703250051E-1	-3,079999983E-2	1,121999994E-1
1,348303918E1	-2,864125073E-1	-6,270000339E-2	3,712499980E-3
1,350320133E1	-1,671999991E-1	-9,253749996E-2	-5,596249923E-2
1,352336347E1	4,784999788E-2	3,726249933E-2	-2,389750034E-1
1,354352585E1	3,022249937E-1	2,597374916E-1	-4,815250039E-1
1,356368808E1	4,904625118E-1	3,841750026E-1	-4,922499955E-1
1,358385021E1	4,160749912E-1	-3,079999983E-2	-3,506250083E-1
1,360401260E1	3,350875080E-1	-3,905000091E-1	-2,208250016E-1
1,362417474E1	3,478749990E-1	-1,372250021E-1	-3,209249973E-1
1,364433699E1	2,616625130E-1	2,862749994E-1	-4,347749949E-1
1,366449939E1	8,401250094E-2	2,490125000E-1	-4,251500070E-1
1,368466153E1	-4,056249931E-2	-1,915374994E-1	-2,134000063E-1
1,370482370E1	1,168750040E-2	-4,299624860E-1	7,067500055E-2
1,372498596E1	4,564999789E-2	-3,085500002E-1	1,665125042E-1
1,374514812E1	-8,524999768E-2	-2,117500007E-1	2,392499894E-2
1,376531027E1	-2,406249940E-1	-1,691250056E-1	-1,581249982E-1
1,378547243E1	-3,235374987E-1	-2,557500079E-2	-1,687124968E-1
1,380563479E1	-3,619000018E-1	1,924999990E-2	1,512499992E-3
1,382579692E1	-2,873750031E-1	-1,340624988E-1	1,431374997E-1
1,384595908E1	-7,878749818E-2	-1,904374957E-1	9,624999762E-2
1,386612132E1	7,548750192E-2	-2,969999984E-2	-1,229249984E-1
1,388628346E1	9,569999576E-2	1,405249983E-1	-2,751374841E-1
1,390644563E1	5,211250111E-2	8,195000142E-2	-3,645125031E-1
1,392660800E1	2,160124928E-1	2,065249979E-1	-4,283125103E-1
1,394677016E1	4,160749912E-1	3,756499887E-1	-4,592500031E-1
1,396693261E1	4,490749836E-1	4,086500108E-1	-4,283125103E-1
1,398709475E1	2,160124928E-1	9,899999946E-2	-2,293500006E-1
1,400725692E1	-1,160499975E-1	-3,255999982E-1	-1,223750040E-2
1,402741913E1	-2,107875049E-1	-3,458124995E-1	-2,749999985E-3
1,404758126E1	-2,448875010E-1	-1,484999992E-2	-8,882500231E-2
1,406774340E1	-3,097875118E-1	2,384250015E-1	-1,825999916E-1
1,408790578E1	-3,619000018E-1	1,979999989E-1	-1,377750039E-1
1,410806792E1	-2,415875047E-1	6,462499965E-3	4,097500071E-2
1,412823016E1	-2,887500077E-2	-2,362249941E-1	1,420374960E-1
1,414839232E1	1,403875053E-1	-3,426499963E-1	7,919999957E-2
1,416855448E1	2,531374991E-1	-2,265999913E-1	-9,418749809E-2
1,418871663E1	2,223374993E-1	-5,101250112E-2	-3,474625051E-1
1,420887903E1	1,414874941E-1	1,479499936E-1	-4,783625007E-1
1,422904118E1	-8,607500046E-2	1,846625060E-1	-3,268375099E-1
1,424920342E1	-4,010874927E-1	-1,336500049E-1	-4,798749834E-2
1,426936557E1	-3,914625049E-1	-3,454000056E-1	4,248749837E-2
1,428952772E1	-1,275999993E-1	-2,506625056E-1	-6,819999963E-2
1,430969012E1	1,768250018E-1	3,451250121E-2	-2,523125112E-1
1,432985234E1	2,960374951E-1	2,761000097E-1	-4,204750061E-1
1,435001452E1	2,832500041E-1	3,420999944E-1	-4,258374870E-1
1,437017668E1	4,056249931E-2	8,566249907E-2	-1,757249981E-1
1,439033883E1	-2,499749959E-1	-3,708375096E-1	1,350249946E-1
1,441050123E1	-3,372874856E-1	-6,369000077E-1	3,319250047E-1
1,443066338E1	-3,361875117E-1	-5,847874880E-1	2,468124926E-1
1,445082562E1	-4,724499881E-1	-3,007124960E-1	-2,667500079E-2
1,447098776E1	-6,415749788E-1	-8,786249906E-2	-1,427250057E-1
1,449115014E1	-6,330500245E-1	-7,287500054E-2	-9,913749993E-2
1,451131230E1	-3,660250008E-1	-1,869999990E-2	-5,444999784E-2
1,453147446E1	-7,864999771E-2	1,856249943E-2	-1,427250057E-1
1,455163669E1	1,703625023E-1	-2,818750031E-2	-2,832500041E-1
1,457179885E1	4,417875111E-1	-1,080750003E-1	-4,503124952E-1
1,459196122E1	6,003249884E-1	-7,617499679E-2	-4,481124878E-1
1,461212337E1	6,151750088E-1	-5,692499876E-2	-3,811500072E-1
1,463228559E1	6,237000227E-1	-7,974999957E-3	-3,321999907E-1
1,465244775E1	6,205375195E-1	1,750375032E-1	-4,406875074E-1
1,467261013E1	5,046250224E-1	3,964124918E-1	-5,545374751E-1
1,469277228E1	4,151124954E-1	5,284125209E-1	-4,651624858E-1
1,471293444E1	1,991000026E-1	2,452999949E-1	-2,459875047E-1
1,473309668E1	1,182499994E-2	2,818750031E-2	9,487500414E-3
1,475325904E1	2,777500078E-2	1,494625062E-1	1,616999954E-1
1,477342120E1	-9,143749624E-2	7,493750006E-2	1,702249944E-1
1,479358337E1	-2,563000023E-1	-1,698125005E-1	1,051874980E-1
1,481374558E1	-2,414499968E-1	-2,154625058E-1	2,749999985E-2
1,483390773E1	-1,935999990E-1	-1,175625026E-1	-1,150875017E-1
1,485407011E1	-2,892999947E-1	-7,397499681E-2	-2,172500044E-1
1,487423226E1	-3,819749951E-1	-7,713750005E-2	-2,033624947E-1
1,489439443E1	-5,149375200E-1	-2,123000026E-1	-8,098749816E-2
1,491455665E1	-4,851000011E-1	-2,857249975E-1	-5,499999970E-3
1,493471903E1	-2,892999947E-1	-2,814624906E-1	-2,571249940E-2
1,495488097E1	9,762499481E-3	-2,655124962E-1	-1,321374923E-1
1,497504333E1	2,884750068E-1	-1,357125044E-1	-2,969999909E-1
1,499520549E1	4,321624935E-1	4,729999974E-2	-4,705249965E-1
1,501536772E1	4,417875111E-1	1,335124969E-1	-4,193750024E-1
1,503552987E1	3,407250047E-1	3,024999984E-2	-2,098249942E-1
1,505569226E1	2,129874974E-1	-1,750375032E-1	-5,499999970E-3
1,507585443E1	1,938749999E-1	-1,527625024E-1	1,484999992E-2
1,509601660E1	1,150875017E-1	-6,874999963E-3	-1,959374994E-1
1,511617883E1	9,762499481E-3	7,919999957E-2	-4,013625085E-1
1,513634101E1	-2,433750033E-2	-1,539999992E-2	-3,448500037E-1
1,515650340E1	-5,527500063E-2	-2,868250012E-1	-1,086250022E-1
1,517666556E1	-6,324999966E-3	-3,431999981E-1	1,691249944E-2
1,519682778E1	1,363999993E-1	-6,544999778E-2	-7,672499865E-2
1,521698991E1	2,118874937E-1	2,069374919E-1	-2,651000023E-1
1,523715232E1	5,871250108E-2	8,676250279E-2	-2,736249864E-1
1,525731446E1	-1,935999990E-1	-2,782999873E-1	-6,929999590E-2
1,527747662E1	-3,404499888E-1	-3,793624938E-1	8,607500046E-2
1,529763910E1	-3,308250010E-1	-1,251250058E-1	-5,499999970E-3
1,531780102E1	-1,956624985E-1	1,687124968E-1	-1,757249981E-1
1,533796341E1	-5,101250112E-2	2,410375029E-1	-2,193125039E-1
1,535812556E1	-1,700875014E-1	-8,786249906E-2	-2,864125073E-1
1,537828769E1	-3,602499887E-2	-3,038749993E-1	-3,757874966E-1
1,539844992E1	4,034250081E-1	-1,952500045E-1	-4,822124839E-1
1,541861207E1	6,897000074E-1	-1,027124971E-1	-5,726875067E-1
1,543877444E1	7,514374852E-1	-1,251250058E-1	-5,662249923E-1
1,545893660E1	7,525374889E-1	-1,282874942E-1	-5,172749758E-1
1,547909883E1	6,269999743E-1	-8,566249907E-2	-5,055875182E-1
1,549926091E1	2,714250088E-1	-7,397499681E-2	-4,204750061E-1
1,551942315E1	-9,886249900E-2	-2,921875119E-1	-2,129874974E-1
1,553958530E1	-1,574375033E-1	-2,964499891E-1	-1,076624990E-1
1,555974767E1	-2,776125073E-1	-8,992499858E-2	-2,310000062E-1
1,557990991E1	-2,073500007E-1	2,953499854E-1	-3,108874857E-1
1,560007207E1	-1,456124932E-1	1,016125008E-1	-4,166249931E-2
1,562023421E1	-1,850749999E-1	-4,401375055E-1	3,521375060E-1
1,564039661E1	-2,670249939E-1	-7,913125157E-1	5,351499915E-1
1,566055874E1	-3,797749877E-1	-6,561499834E-1	4,648874998E-1
1,568072089E1	-6,287875175E-1	-3,804624975E-1	3,117125034E-1
1,570088337E1	-7,799000144E-1	-1,952500045E-1	3,095124960E-1
1,572104529E1	-7,352125049E-1	-4,743750021E-2	3,085500002E-1
1,574120742E1	-5,297874808E-1	1,112374961E-1	2,180749923E-1
1,576136981E1	-3,137750030E-1	1,898874938E-1	1,154999994E-2
1,578153196E1	-2,850374877E-1	-1,539999992E-2	-2,278375030E-1
1,580169417E1	-1,520749927E-1	-8,882500231E-2	-4,056249857E-1
1,582185655E1	2,571249940E-2	-3,355000168E-2	-4,833124876E-1
1,584201848E1	4,908749834E-2	-9,308750182E-2	-5,066875219E-1
1,586218085E1	2,144999988E-2	-2,527250051E-1	-5,066875219E-1
1,588234302E1	4,688749835E-2	-4,368374944E-1	-4,694249928E-1
1,590250515E1	2,417249978E-1	-5,337749720E-1	-3,449875116E-1
1,592266760E1	4,045250118E-1	-5,017374754E-1	-3,129499853E-1
1,594282953E1	5,864375234E-1	-2,602874935E-1	-5,524749756E-1
1,596299190E1	9,259250164E-1	4,070000052E-1	-9,110749960E-1
1,598315408E1	1,226087451E0	1,007187486E0	-1,051599979E0
1,600331624E1	1,011175036E0	8,401250243E-1	-7,748125196E-1
1,602347846E1	4,683249891E-1	-1,495999992E-1	-2,235749960E-1
1,604364062E1	5,460125208E-1	-5,933125019E-1	1,392875016E-1
1,606380304E1	8,525000215E-1	-1,825999916E-1	1,264999993E-2
1,608396519E1	5,960624814E-1	3,346749842E-1	-3,821125031E-1
1,610412742E1	-3,372874856E-1	9,308750182E-2	-4,002625048E-1
1,612428983E1	-1,296074986E0	-8,072624803E-1	2,765125036E-1
1,614445199E1	-1,331137538E0	-1,110587478E0	9,321125150E-1
1,616461414E1	-1,004437447E0	-8,806874752E-1	8,768374920E-1
1,618477639E1	-8,427374959E-1	-6,061000228E-1	5,160375237E-1
1,620493853E1	-7,171999812E-1	-4,996750057E-1	3,095124960E-1
1,622510070E1	-4,553999901E-1	-5,050374866E-1	3,822499886E-2
1,624526310E1	-1,264999993E-2	-3,858250082E-1	-2,161500007E-1
1,626542502E1	5,109499693E-1	-5,692499876E-2	-2,991999984E-1
1,628558740E1	6,683874726E-1	1,399749964E-1	-4,790500104E-1
1,630574955E1	6,142125130E-1	4,186874926E-1	-6,908000112E-1
1,632591170E1	6,077499986E-1	8,679000139E-1	-7,375500202E-1
1,634607386E1	4,992625117E-1	9,838125110E-1	-6,333249807E-1
1,636623610E1	3,342624903E-1	9,168499708E-1	-5,790125132E-1
1,638639822E1	3,012624979E-1	9,624999762E-1	-5,843750238E-1
1,640656061E1	4,833124876E-1	1,048712492E0	-4,800125062E-1
1,642672275E1	3,449875116E-1	5,326749682E-1	-6,929999590E-2
1,644688496E1	-3,297249973E-1	-9,316999912E-1	6,936874986E-1
1,646704710E1	-4,681875110E-1	-1,851162434E0	1,214125037E0
1,648720949E1	-1,222374961E-1	-1,429725051E0	1,193912506E0
1,650737164E1	-2,818749845E-1	-6,166874766E-1	7,140374780E-1
1,652753386E1	-8,937500119E-1	-3,463625014E-1	3,702875078E-1
1,654769602E1	-1,017225027E0	-5,730999708E-1	2,446125001E-1
1,656785819E1	-2,169750035E-1	-4,230875075E-1	1,509750038E-1
1,658802057E1	6,716874838E-1	-2,818750031E-2	3,176249936E-2
1,660818273E1	8,461750150E-1	3,463625014E-1	-2,597374916E-1
1,662834488E1	6,737499833E-1	6,485875249E-1	-5,311625004E-1
1,664850710E1	6,865375042E-1	9,615374804E-1	-5,417500138E-1
1,666866927E1	6,919000149E-1	8,560749888E-1	-3,991625011E-1
1,668883141E1	4,907374978E-1	2,931500077E-1	-1,299374998E-1
1,670899356E1	3,321999907E-1	-7,191249728E-2	1,275999993E-1
1,672915596E1	2,789874971E-1	-6,971249729E-2	2,733500004E-1
1,674931819E1	1,000999957E-1	-1,698125005E-1	3,914625049E-1
1,676948026E1	-1,254000068E-1	-3,986124992E-1	4,383499920E-1
1,678964242E1	-1,381874979E-1	-2,719750106E-1	3,808749914E-1
1,680980467E1	-1,776500046E-1	4,812499974E-3	2,425500005E-1
1,682996705E1	-1,456124932E-1	2,857249975E-1	-3,203750029E-2
1,685012921E1	-5,953750014E-2	4,346374869E-1	-2,343000025E-1
1,687029137E1	1,814999990E-2	3,537875116E-1	-2,320999950E-1
1,689045350E1	-2,127124965E-1	-8,249999583E-2	-1,405249983E-1
1,691061575E1	-3,606624901E-1	-4,974749982E-1	-4,372499883E-2
1,693077790E1	-1,413500011E-1	-5,326749682E-1	7,644999772E-2
1,695094028E1	2,150499970E-1	-2,931500077E-1	-2,461249940E-2
1,697110244E1	3,044250011E-1	1,377750039E-1	-3,948999941E-1
1,699126468E1	2,810499966E-1	4,974749982E-1	-5,992249846E-1
1,701142683E1	-6,324999966E-3	3,048374951E-1	-3,948999941E-1
1,703158898E1	-5,724124908E-1	-5,688375235E-1	-1,924999990E-2
1,705175112E1	-4,479750097E-1	-7,380999923E-1	1,211374998E-1
1,707191352E1	3,023625016E-1	-3,671250120E-2	-1,086250022E-1
1,709207568E1	7,046874762E-1	5,400999784E-1	-3,533749878E-1
1,711223789E1	4,438500106E-1	1,856250018E-1	-3,470500112E-1
1,713240003E1	2,352624983E-1	-4,666749835E-1	-4,399999976E-3
1,715256219E1	5,598999858E-1	-4,262500107E-1	1,722874939E-1
1,717272436E1	5,545374751E-1	-3,987500072E-2	-5,871250108E-2
1,719288675E1	9,487500042E-2	1,238875017E-1	-1,033999994E-1
1,721304890E1	-4,329875112E-1	-3,155624866E-1	8,827500045E-2
1,723321111E1	-3,063499928E-1	-4,316124916E-1	1,583999991E-1
1,725337327E1	5,871250108E-2	-4,523750022E-2	-6,077500060E-2
1,727353565E1	3,609375060E-1	5,495874882E-1	-2,980999947E-1
1,729369780E1	2,991999984E-1	4,262500107E-1	-2,044624984E-1
1,731385994E1	-1,563374996E-1	-4,826250076E-1	2,232999951E-1
1,733402211E1	-3,521375060E-1	-9,732249975E-1	6,927250028E-1
1,735418427E1	-2,116124928E-1	-6,624749899E-1	7,884249687E-1
1,737434673E1	-2,116124928E-1	-2,048749924E-1	3,489750028E-1
1,739450866E1	-2,531374991E-1	2,069374919E-1	-6,503749639E-2
1,741467105E1	-1,179749966E-1	3,474625051E-1	-1,023000032E-1
1,743483317E1	-3,602499887E-2	9,418749809E-2	-3,739999980E-2
1,745499531E1	-5,101250112E-2	-1,538625062E-1	4,991250113E-2
1,747515753E1	1,853500009E-1	-6,118749827E-2	9,886249900E-2
1,749531968E1	2,087250054E-1	-2,208250016E-1	4,771250114E-2
1,751548206E1	1,237499993E-3	-2,996124923E-1	2,062499989E-3
1,753564421E1	-9,886249900E-2	-1,570249945E-1	-1,640374959E-1
1,755580636E1	2,055625021E-1	2,388374954E-1	-1,927749962E-1
1,757596857E1	4,162124991E-1	4,060375094E-1	1,801249944E-2
1,759613075E1	1,000999957E-1	4,413750023E-2	2,149125040E-1
1,761629292E1	-3,489750028E-1	-2,729375064E-1	4,021874964E-1
1,763645529E1	-3,584625125E-1	-2,219250053E-1	5,032500029E-1
1,765661745E1	-1,659625024E-1	-1,857624948E-1	4,404124916E-1
1,767677961E1	2,351249941E-2	-1,208624989E-1	2,883374989E-1
1,769694185E1	1,405249983E-1	1,539999992E-2	1,606000066E-1
1,771710403E1	2,267374992E-1	2,282499969E-1	9,624999948E-4
1,773726619E1	2,778874934E-1	4,474250078E-1	-3,739999980E-2
1,775742856E1	2,553375065E-1	5,278624892E-1	1,153625026E-1
1,777759073E1	2,382874936E-1	5,215374827E-1	8,030000329E-2
1,779775292E1	1,073874980E-1	5,875374675E-1	4,812499974E-3
1,781791515E1	-3,519999981E-2	5,428500175E-1	1,537249982E-1
1,783807756E1	-2,480500042E-1	1,138499975E-1	4,995374978E-1
1,785823971E1	-2,076250017E-1	-7,658749819E-2	3,431999981E-1
1,787840185E1	-2,406249940E-1	2,480500042E-1	-2,155999988E-1
1,789856399E1	-4,399999976E-3	9,567250013E-1	-4,006749988E-1
1,791872613E1	1,776500046E-1	9,227625132E-1	-2,144999951E-1
1,793888838E1	-3,513124883E-1	-5,245624781E-1	-5,802499875E-2
1,795905078E1	-4,257000089E-1	-9,545249939E-1	2,462625057E-1
1,797921294E1	-2,958999872E-1	-2,458499968E-1	3,187249899E-1
1,799937507E1	-4,811125100E-1	2,660624981E-1	-2,749999985E-3
1,801953721E1	-5,790125132E-1	3,331624866E-1	-2,782999873E-1
1,803969944E1	-5,545374751E-1	1,394249946E-1	-1,548250020E-1
1,805986161E1	-5,790125132E-1	-2,829749882E-1	4,619999975E-2
1,808002396E1	-3,438875079E-1	-3,905000091E-1	5,046249926E-2
1,810018622E1	1,105500013E-1	-1,073874980E-1	-1,176999956E-1
1,812034828E1	4,500375092E-1	2,458499968E-1	-3,986124992E-1
1,814051051E1	2,074874938E-1	-7,232499868E-2	-5,912500024E-1
1,816067265E1	-4,152499884E-2	-4,511374831E-1	-3,986124992E-1
1,818083481E1	-1,564749926E-1	-7,427750230E-1	-2,928750031E-2
1,820099719E1	-1,586750001E-1	-7,715125084E-1	2,598750032E-2
1,822115938E1	4,358749837E-2	-3,053874969E-1	-3,454000056E-1
1,824132162E1	4,778124988E-1	5,087500215E-1	-7,093625069E-1
1,826148370E1	6,171000004E-1	8,109750152E-1	-7,380999923E-1
1,828164590E1	9,624999948E-4	-1,648624986E-1	-3,187249899E-1
1,830180806E1	-2,927374840E-1	-1,112100005E0	3,687750101E-1
1,832197054E1	3,617624938E-1	-7,097749710E-1	4,676375091E-1
1,834213262E1	5,097125173E-1	3,162499983E-3	-7,081250101E-2
1,836229478E1	2,362249941E-1	3,203749955E-1	-3,602499962E-1
1,838245701E1	1,911249943E-2	8,524999954E-3	-2,293500006E-1
1,840261940E1	1,830125004E-1	-1,702249944E-1	-2,502499893E-2
1,842278130E1	3,074499965E-1	-9,624999948E-4	-1,966249943E-2
1,844294368E1	2,744500041E-1	1,522125006E-1	-1,091749966E-1
1,846310583E1	1,744875014E-1	3,726249933E-2	-8,359999955E-2
1,848326799E1	3,181749880E-1	7,988750190E-2	-9,735000134E-2
1,850343022E1	4,522374868E-1	3,650625050E-1	-1,495999992E-1
1,852359237E1	5,351499915E-1	6,246625185E-1	-1,473999918E-1
1,854375471E1	3,426499963E-1	4,672249854E-1	-7,397499681E-2
1,856391694E1	1,414874941E-1	1,627999991E-1	1,878249943E-1
1,858407907E1	-8,098749816E-2	-1,958000064E-1	5,091624856E-1
1,860424122E1	-2,150499970E-1	-4,075500071E-1	4,655750096E-1
1,862440337E1	-2,278375030E-1	-1,861750036E-1	2,399374992E-1
1,864456575E1	-1,256749928E-1	2,022625059E-1	9,624999762E-2
1,866472791E1	-9,047500044E-2	1,905750036E-1	5,266249925E-2
1,868489015E1	-2,044624984E-1	-9,899999946E-2	1,249874979E-1
1,870505229E1	-1,405249983E-1	-1,031249985E-1	1,728374958E-1
1,872521444E1	-3,519999981E-2	-1,704999991E-2	4,097500071E-2
1,874537682E1	4,042499885E-2	2,557500079E-2	-1,868624985E-1
1,876553873E1	1,116499975E-1	1,351625025E-1	-3,113000095E-1
1,878570089E1	1,010624990E-1	2,139499933E-1	-1,920875013E-1
1,880586305E1	-8,524999768E-2	2,447500080E-2	1,539999992E-2
1,882602544E1	-2,256374955E-1	-1,297999918E-1	1,229249984E-1
1,884618768E1	-1,490499973E-1	-6,599999964E-2	1,718750000E-1
1,886634988E1	-9,157499671E-2	-8,524999954E-3	1,164624989E-1
1,888651195E1	-2,278375030E-1	-1,181124970E-1	8,456250280E-2
1,890667420E1	-2,767874897E-1	-2,532750070E-1	1,357125044E-1
1,892683662E1	-1,885125041E-1	-2,968625128E-1	1,878249943E-1
1,894699877E1	-9,693749994E-2	-2,788499892E-1	8,772499859E-2
1,896716102E1	-7,246249914E-2	-2,575374842E-1	-1,017499994E-2
1,898732316E1	-5,651250109E-2	-1,766874939E-1	2,172499895E-2
1,900748530E1	-1,277374923E-1	-1,192125008E-1	1,005124971E-1
1,902764768E1	-1,671999991E-1	-9,624999948E-4	1,665125042E-1
1,904780985E1	-2,331999987E-1	6,283749640E-2	2,058375031E-1
1,906797201E1	-3,863750100E-1	1,924999990E-2	2,026749998E-1
1,908813425E1	-5,502749681E-1	-1,403875053E-1	2,740375102E-1
1,910829632E1	-5,651249886E-1	-3,278000057E-1	3,400374949E-1
1,912845849E1	-4,065875113E-1	-4,351874888E-1	2,666125000E-1
1,914862072E1	-1,299374998E-1	-4,118124843E-1	4,949999973E-2
1,916878287E1	2,433750033E-2	-4,778124988E-1	-1,920875013E-1
1,918894501E1	1,585374922E-1	-6,022499800E-1	-1,974499971E-1
1,920910718E1	5,458750129E-1	-4,501749873E-1	-1,559250057E-1
1,922926955E1	1,175899982E0	-6,324999966E-3	-3,528249860E-1
1,924943169E1	1,609025002E0	5,512375236E-1	-6,624749899E-1
1,926959385E1	1,672824979E0	9,450374842E-1	-9,626374841E-1
1,928975607E1	1,466437459E0	1,081300020E0	-1,049812436E0
1,930991822E1	1,059849977E0	8,619874716E-1	-8,072624803E-1
1,933008037E1	6,554625034E-1	4,991250038E-1	-3,102000058E-1
1,935024276E1	3,702875078E-1	3,107500076E-1	1,153625026E-1
1,937040492E1	4,455000162E-2	1,319999993E-1	4,283125103E-1
1,939056708E1	-3,055250049E-1	-2,755500078E-1	8,145499825E-1
1,941072923E1	-6,450124979E-1	-8,226624727E-1	1,112650037E0
1,943089137E1	-9,344499707E-1	-8,002499938E-1	1,120074987E0
1,945105358E1	-1,061087489E0	-2,606999874E-1	9,741874933E-1
1,947121574E1	-1,038812518E0	-1,106875017E-1	9,732249975E-1
1,949137790E1	-8,322874904E-1	-1,670625061E-1	8,475499749E-1
1,951154027E1	-5,002250075E-1	7,878749818E-2	3,836250007E-1
1,953170240E1	-1,831499934E-1	4,937624931E-1	-2,749999985E-3
1,955186456E1	1,776500046E-1	7,673875093E-1	-3,049750030E-1
1,957202681E1	2,297624946E-1	3,619000018E-1	-5,295125246E-1
1,959218898E1	1,947000027E-1	-1,255374998E-1	-5,634750128E-1
1,961235113E1	2,903999984E-1	-3,074499965E-1	-4,879874885E-1
1,963251328E1	4,340874851E-1	-1,915374994E-1	-3,878875077E-1
1,965267567E1	5,032500029E-1	1,128875017E-1	-3,465000093E-1
1,967283784E1	4,010874927E-1	4,438500106E-1	-3,676750064E-1
1,969300007E1	1,787499934E-1	6,289250255E-1	-2,975499928E-1
1,971316223E1	-3,044250011E-1	2,628999949E-1	-2,749999985E-3
1,973332437E1	-6,609625220E-1	-4,926624894E-1	3,431999981E-1
1,975348654E1	-1,788875014E-1	-3,480125070E-1	4,793249965E-1
1,977364895E1	4,830375016E-1	5,257999897E-1	3,761999905E-1
1,979381109E1	4,064500034E-1	7,045499682E-1	2,505249977E-1
1,981397322E1	-2,118874937E-1	-1,935999990E-1	2,920500040E-1
1,983413546E1	-2,788499892E-1	-6,949250102E-1	3,804624975E-1
1,985429761E1	7,548750192E-2	-3,969624937E-1	2,345750034E-1
1,987445972E1	-4,399999976E-3	-2,627624869E-1	-5,802499875E-2
1,989462188E1	-3,470500112E-1	-3,617624938E-1	-2,879250050E-1
1,991478428E1	-5,779125094E-1	-2,723875046E-1	-4,092000127E-1
1,993494642E1	-4,746499956E-1	2,873750031E-2	-3,687750101E-1
1,995510854E1	-2,512125075E-1	1,149500012E-1	-1,229249984E-1
1,997527069E1	-1,735250056E-1	-2,415875047E-1	1,846625060E-1
1,999543294E1	1,691249944E-2	-4,342249930E-1	4,464625120E-1
2,001559509E1	1,467124969E-1	-2,957625091E-1	5,230500102E-1
2,003575746E1	-5,857500061E-2	7,342500240E-2	2,282499969E-1
2,005591963E1	-3,310999870E-1	4,959625006E-1	-1,346125007E-1
2,007608180E1	-3,097875118E-1	7,471749783E-1	-2,239875048E-1
2,009624395E1	-2,107875049E-1	3,810124993E-1	-4,317500070E-2
2,011640618E1	-1,331000030E-1	-3,085500002E-1	1,473999918E-1
2,013656835E1	1,307625026E-1	-3,724874854E-1	-2,749999985E-3
2,015673049E1	3,426499963E-1	-1,374999993E-2	-2,708750069E-1
2,017689262E1	3,255999982E-1	1,948374957E-1	-3,379749954E-1
2,019705509E1	-1,267749965E-1	-5,267624855E-1	-1,240250021E-1
2,021721720E1	-1,948374957E-1	-1,031112552E0	3,537875116E-1
2,023737943E1	1,181124970E-1	-6,278250217E-1	5,581125021E-1
2,025754159E1	1,084875017E-1	1,011999995E-1	2,868250012E-1
2,027770374E1	-3,313750029E-2	7,056499720E-1	1,003750041E-2
2,029786590E1	-1,108250022E-1	6,331874728E-1	-1,058750004E-1
2,031802803E1	-7,356250286E-2	-4,468749836E-2	5,376249924E-2
2,033819019E1	4,904625118E-1	-3,352249861E-1	3,495250046E-1
2,035835258E1	9,055749774E-1	-1,201749966E-1	3,697375059E-1
2,037851474E1	6,289250255E-1	1,075249985E-1	9,418749809E-2
2,039867689E1	1,702249944E-1	1,735250056E-1	-5,802499875E-2
2,041883911E1	1,168750040E-2	-1,201749966E-1	-1,127499994E-2
2,043900127E1	9,363749623E-2	-2,564375103E-1	1,526249945E-1
2,045916343E1	1,911249943E-2	-2,653750032E-2	3,569499850E-1
2,047932559E1	-2,534124851E-1	4,042499885E-2	5,134249926E-1
2,049948798E1	-3,683624864E-1	-1,489125043E-1	5,475249887E-1
2,051965012E1	-8,304999769E-2	-1,594999991E-2	5,549499989E-1
2,053981228E1	1,893374920E-1	2,777499855E-1	5,933125019E-1
2,055997443E1	1,255374998E-1	3,937999904E-1	6,411625147E-1
2,058013665E1	-4,399999976E-3	5,161749721E-1	4,081000090E-1
2,060029903E1	-6,173750013E-2	7,768750191E-1	2,186249942E-1
2,062046095E1	1,062875018E-1	1,075937510E0	1,463000029E-1
2,064062335E1	1,190750003E-1	7,651875019E-1	1,856250018E-1
2,066078550E1	9,886249900E-2	7,026249915E-2	3,474625051E-1
2,068094765E1	2,447499931E-1	-3,543374836E-1	2,143625021E-1
2,070110990E1	4,320249856E-1	-9,047500044E-2	-2,208250016E-1
2,072127206E1	3,691875041E-1	3,405874968E-1	-6,040375233E-1
2,074143443E1	9,886249900E-2	4,523749948E-1	-7,039999962E-1
2,076159637E1	-3,895374835E-1	-2,340250015E-1	-5,135625005E-1
2,078175853E1	-6,461125016E-1	-1,032212496E0	-2,421374917E-1
2,080192092E1	-2,980999947E-1	-6,554625034E-1	-1,127499994E-2
2,082208315E1	1,659625024E-1	4,692874849E-1	1,366750002E-1
2,084224521E1	4,675000161E-2	1,036612511E0	3,367374837E-1
2,086240744E1	-8,163374662E-1	-2,543750033E-2	6,166874766E-1
2,088256960E1	-8,599249721E-1	-7,246249914E-1	9,433875084E-1
2,090273199E1	-1,968999952E-1	-2,095499933E-1	1,000862479E0
2,092289391E1	-3,409999982E-2	3,639625013E-1	8,241750002E-1
2,094305607E1	-5,534374714E-1	2,480500042E-1	4,804250002E-1
2,096321844E1	-8,641874790E-1	7,988750190E-2	1,548250020E-1
2,098338059E1	-4,907374978E-1	2,437874973E-1	1,113750041E-2
2,100354273E1	-4,688749835E-2	2,983750030E-2	-4,633750021E-2
2,102370517E1	1,053249985E-1	-3,905000091E-1	-1,538625062E-1
2,104386730E1	1,861750036E-1	-2,957625091E-1	-2,899875045E-1
2,106402948E1	2,861374915E-1	1,905750036E-1	-5,517874956E-1
2,108419163E1	3,000249863E-1	4,757499993E-1	-6,997374892E-1
2,110435377E1	1,159124970E-1	9,473749995E-2	-4,826250076E-1
2,112451590E1	-2,374625057E-1	-7,598249912E-1	3,877500072E-2
2,114467813E1	4,564999789E-2	-7,448375225E-1	3,836250007E-1
2,116484028E1	4,574624896E-1	1,128875017E-1	1,473999918E-1
2,118500243E1	4,841375053E-1	9,270250201E-1	-2,793999910E-1
2,120516481E1	4,309250116E-1	1,136574984E0	-3,772999942E-1
2,122532674E1	1,520749927E-1	1,416250020E-1	-3,496625125E-1
2,124548891E1	2,531374991E-1	-6,150375009E-1	4,193750024E-2
2,126565128E1	3,788124919E-1	-3,628624976E-1	3,113000095E-1
2,128581322E1	5,417500064E-2	1,872749925E-1	2,484624982E-1
2,130597560E1	-6,769124866E-1	5,257999897E-1	1,451999992E-1
2,132613774E1	-1,217562437E0	5,235999823E-1	2,931500077E-1
2,134629990E1	-1,289887547E0	3,522749841E-1	6,070625186E-1
2,136646214E1	-1,007874966E0	1,425874978E-1	9,763875008E-1
2,138662429E1	-8,834375143E-1	-5,341874957E-1	1,188137531E0
2,140678644E1	-8,439750075E-1	-1,315325022E0	1,326462507E0
2,142694883E1	-5,130124688E-1	-1,295112491E0	8,529124856E-1
2,144711098E1	-1,597750038E-1	-5,480750203E-1	-2,740375102E-1
2,146727313E1	2,915000021E-1	3,161124885E-1	-8,519499898E-1
2,148743537E1	3,265624940E-1	2,447499931E-1	-9,242749810E-1
2,150759754E1	2,670249939E-1	2,131249942E-2	-1,003062487E0
2,152775969E1	5,319874883E-1	6,098124981E-1	-1,121175051E0
2,154792184E1	1,020524979E0	1,761237502E0	-1,294700027E0
2,156808422E1	1,281224966E0	2,542375088E0	-1,473449945E0
2,158824606E1	1,096012473E0	2,195462465E0	-1,421337485E0
2,160840852E1	1,744875014E-1	8,841250092E-2	-8,487874866E-1
2,162857069E1	-7,418124676E-1	-2,853125095E0	2,527250051E-1
2,164873285E1	3,436124921E-1	-3,185187578E0	1,091337442E0
2,166889502E1	1,320549965E0	-1,435637474E0	1,113612533E0
2,168905716E1	4,426124990E-1	3,192749918E-1	5,165874958E-1
2,170921931E1	-1,227049947E0	8,300874829E-1	1,782000065E-1
2,172938147E1	-2,230662584E0	2,586374879E-1	3,612124920E-1
2,174954362E1	-1,921975017E0	-3,596999943E-1	4,505875111E-1
2,176970580E1	-4,278999865E-1	-2,276999950E-1	3,293125033E-1
2,178986805E1	8,492000103E-1	4,406875074E-1	1,036750004E-1
2,181003021E1	1,176862478E0	9,928874969E-1	-4,411000013E-1
2,183019237E1	1,034274936E0	1,287687540E0	-9,274374843E-1
2,185035474E1	7,033125162E-1	1,125987530E0	-9,849125147E-1
2,187051665E1	3,990249932E-1	7,045499682E-1	-6,593124866E-1
2,189067903E1	2,138125002E-1	4,076874852E-1	-2,602874935E-1
2,191084118E1	4,991250113E-2	2,054249942E-1	2,818750031E-2
2,193100335E1	-1,501500010E-1	-1,436875015E-1	-3,712499980E-3
2,195116550E1	-3,629999980E-2	-3,117125034E-1	-3,081375062E-1
2,197132774E1	2,212374955E-1	-2,734875083E-1	-4,848249853E-1
2,199148989E1	1,053249985E-1	-4,596624970E-1	-5,178250074E-1
2,201165207E1	-1,544124931E-1	-5,671874881E-1	-4,900499880E-1
2,203181423E1	-1,000999957E-1	-1,414874941E-1	-4,518249929E-1
2,205197637E1	5,733750015E-2	4,214375019E-1	-2,868250012E-1
2,207213877E1	-1,660999954E-1	2,043250054E-1	-1,006499976E-1
2,209230092E1	-2,374625057E-1	-1,329624951E-1	-2,818750031E-2
2,211246306E1	1,159124970E-1	1,223749965E-1	2,598750032E-2
2,213262522E1	2,074874938E-1	1,436875015E-1	6,641250104E-2
2,215278734E1	5,637500063E-2	-1,724250019E-1	1,101374999E-1
2,217294951E1	5,527500063E-2	-2,308624983E-1	1,622499973E-1
2,219311167E1	-1,374999993E-4	-2,149125040E-1	1,739374995E-1
2,221327391E1	-1,575749964E-1	-2,032250017E-1	3,341250122E-2
2,223343601E1	-3,715249896E-1	3,162499983E-3	-1,453374922E-1
2,225359823E1	-2,947999835E-1	3,107500076E-1	-1,985500008E-1
2,227376038E1	-3,448500037E-1	-6,270000339E-2	-1,553750038E-2
2,229392251E1	-4,566375017E-1	-8,353124857E-1	1,473999918E-1
2,231408487E1	-7,782500237E-2	-8,822000027E-1	7,397499681E-2
2,233424702E1	5,171374679E-1	-1,702249944E-1	-3,209249973E-1
2,235440917E1	4,862000048E-1	3,491125107E-1	-4,805625081E-1
2,237457133E1	1,073874980E-1	3,012624979E-1	-5,018749833E-1
2,239473349E1	-1,544124931E-1	5,967500061E-2	-4,453625083E-1
2,241489563E1	1,264999993E-2	2,983750030E-2	-1,101374999E-1
2,243505780E1	9,679999948E-2	-2,990624905E-1	1,409374923E-1
2,245522004E1	4,351874888E-1	-4,490749836E-1	-2,928750031E-2
2,247538218E1	9,789999723E-1	-4,991250113E-2	-4,166249931E-1
2,249554430E1	1,044999957E0	4,001249969E-1	-6,327750087E-1
2,251570670E1	5,863000154E-1	2,767874897E-1	-6,157249808E-1
2,253586883E1	-1,054624990E-1	-5,202999711E-1	-3,070375025E-1
2,255603100E1	-2,682625055E-1	-8,492000103E-1	1,568875015E-1
2,257619318E1	-8,524999768E-2	-5,160375237E-1	3,133625090E-1
2,259635533E1	9,487500414E-3	-9,363749623E-2	1,229249984E-1
2,261651749E1	3,932499886E-2	4,533374906E-1	-7,301250100E-2
2,263667964E1	-2,949374914E-1	5,449125171E-1	6,118749827E-2
2,265684180E1	-1,057924986E0	-5,117750168E-1	3,261500001E-1
2,267700402E1	-8,960874677E-1	-1,370599985E0	4,687374830E-1
2,269716640E1	4,926624894E-1	-5,224999785E-1	2,994749844E-1
2,271732832E1	8,725749850E-1	3,416875005E-1	-7,191249728E-2
2,273749048E1	7,232499868E-2	1,937374920E-1	-4,422000051E-1
2,275765286E1	-3,172124922E-1	1,054624990E-1	-5,209875107E-1
2,277781480E1	-9,377499670E-2	4,012250006E-1	-3,240875006E-1
2,279797719E1	-9,047500044E-2	1,223749965E-1	-1,006499976E-1
2,281813935E1	-9,377499670E-2	-4,756124914E-1	8,882500231E-2
2,283830150E1	5,267624855E-1	-3,522749841E-1	-7,287500054E-2
2,285846366E1	1,048162460E0	5,637500063E-2	-4,911499918E-1
2,287862583E1	1,021487474E0	4,587000012E-1	-7,093625069E-1
2,289878806E1	5,416125059E-1	4,587000012E-1	-6,327750087E-1
2,291895020E1	-3,086875081E-1	-2,117500007E-1	-1,772374958E-1
2,293911235E1	-7,588624954E-1	-7,151374817E-1	3,740000129E-1
2,295927451E1	-6,140750051E-1	-5,011875033E-1	4,729999900E-1
2,297943668E1	-2,491499931E-1	1,755875051E-1	2,580874860E-1
2,299959907E1	1,372250021E-1	7,779750228E-1	5,266249925E-2
2,301976122E1	2,117500082E-2	3,852750063E-1	1,069749966E-1
2,303992315E1	-4,896374941E-1	-8,141375184E-1	2,782999873E-1
2,306008554E1	-3,118500113E-1	-1,047199965E0	4,218499959E-1
2,308024769E1	2,915000021E-1	-2,011625022E-1	2,006125003E-1
2,310040991E1	2,021249980E-1	3,426499963E-1	1,649999991E-2
2,312057197E1	-1,149500012E-1	5,193374753E-1	-3,671250120E-2
2,314073413E1	-3,874749839E-1	3,937999904E-1	-2,037750036E-1
2,316089629E1	-3,353624940E-1	4,991250038E-1	-2,953499854E-1
2,318105849E1	-1,937374920E-1	5,449125171E-1	-8,786249906E-2
2,320122065E1	-2,778874934E-1	-7,342500240E-2	1,218250021E-1
2,322138278E1	-2,065249979E-1	-8,471375108E-1	1,526249945E-1
2,324154517E1	3,851374984E-1	-7,618874907E-1	1,463000029E-1
2,326170710E1	6,884624958E-1	-3,810124993E-1	-8,676250279E-2
2,328186948E1	5,937250257E-1	-6,489999592E-2	-4,507249892E-1
2,330203162E1	2,829749882E-1	2,160124928E-1	-5,113624930E-1
2,332219386E1	-2,557500079E-2	2,447499931E-1	-3,836250007E-1
2,334235593E1	-5,460125208E-1	-3,426499963E-1	-5,692499876E-2
2,336251809E1	-6,088500023E-1	-5,416125059E-1	3,059374988E-1
2,338268032E1	-1,885125041E-1	-2,063875049E-1	3,463625014E-1
2,340284240E1	1,839749962E-1	1,713249981E-1	4,193750024E-2
2,342300462E1	2,627624869E-1	3,097875118E-1	-1,655499935E-1
2,344316677E1	8,387500420E-3	-9,363749623E-2	-1,379124969E-1
2,346332890E1	-2,491499931E-1	-6,895624995E-1	1,164624989E-1
2,348349105E1	-1,820500046E-1	-8,225250244E-1	4,379374981E-1
2,350365344E1	-1,479499936E-1	-4,883999825E-1	3,016749918E-1
2,352381560E1	-3,555749953E-1	-4,358749837E-2	-6,544999778E-2
2,354397777E1	-3,257375062E-1	3,789499998E-1	-3,465000093E-1
2,356413993E1	-2,597374916E-1	4,523749948E-1	-5,667750239E-1
2,358430217E1	-1,831499934E-1	6,819999963E-2	-4,720374942E-1
2,360446431E1	-6,393750012E-2	-7,555624843E-1	-3,355000168E-2
2,362462648E1	2,234375030E-1	-1,002375007E0	1,920875013E-1
2,364478863E1	4,564999938E-1	-4,746499956E-1	-5,376249924E-2
2,366495078E1	3,766124845E-1	3,075875044E-1	-3,667125106E-1
2,368511296E1	1,212750003E-1	5,554999709E-1	-5,603125095E-1
2,370527534E1	-2,054249942E-1	1,192125008E-1	-5,007749796E-1
2,372543726E1	-2,983750030E-2	-2,180749923E-1	-1,134374961E-1
2,374559933E1	3,723500073E-1	-4,564999938E-1	2,026749998E-1
2,376576157E1	6,788374782E-1	-4,991250038E-1	2,080374956E-1
2,378592374E1	7,917249799E-1	-3,287625015E-1	3,561250120E-2
2,380608591E1	7,257249951E-1	1,203124970E-1	-2,443374991E-1
2,382624806E1	3,851374984E-1	3,192749918E-1	-2,740375102E-1
2,384641044E1	1,722874939E-1	3,713875115E-1	-6,764999777E-2
2,386657258E1	-1,192125008E-1	-1,058750041E-2	3,420999944E-1
2,388673473E1	-2,417249978E-1	-2,862749994E-1	7,251750231E-1
2,390689696E1	-2,278375030E-1	-3,064875007E-1	7,635374665E-1
2,392705914E1	-1,075249985E-1	-7,026249915E-2	4,868874848E-1
2,394722129E1	1,264999993E-2	2,820124924E-1	1,207249984E-1
2,396738343E1	-6,283749640E-2	3,596999943E-1	-1,219625026E-1
2,398754561E1	-2,374625057E-1	1,703625023E-1	-1,176999956E-1
2,400770797E1	-3,544749916E-1	-1,053249985E-1	1,649999991E-2
2,402786982E1	-3,278000057E-1	-2,010249943E-1	2,392499894E-2
2,404803205E1	-2,725250125E-1	-8,511249721E-2	-4,633750021E-2
2,406819421E1	-2,714250088E-1	6,173750013E-2	-1,271875054E-1
2,408835660E1	-3,438875079E-1	1,755875051E-1	-2,602874935E-1
2,410851853E1	-3,001624942E-1	3,012624979E-1	-3,389374912E-1
2,412868090E1	-1,192125008E-1	2,990624905E-1	-2,804999948E-1
2,414884305E1	3,162499983E-3	8,304999769E-2	-8,359999955E-2
2,416900521E1	8,607500046E-2	2,131249942E-2	5,582499877E-2
2,418916738E1	9,679999948E-2	3,836249933E-2	1,027124971E-1
2,420932952E1	3,396249935E-2	3,519999981E-2	1,696749926E-1
2,422949168E1	-9,047500044E-2	-1,181124970E-1	2,866874933E-1
2,424965382E1	-1,991000026E-1	-2,404875010E-1	4,166249931E-1
2,426981604E1	-2,320999950E-1	-2,202749997E-1	4,346374869E-1
2,428997814E1	-1,959374994E-1	-9,473749995E-2	3,165250123E-1
2,431014035E1	-2,256374955E-1	-2,021249942E-2	1,047749966E-1
2,433030251E1	-1,544124931E-1	6,819999963E-2	4,674999975E-3
2,435046466E1	-1,388750039E-2	5,224999785E-2	1,113750041E-2
2,437062681E1	1,711875051E-1	5,004999787E-2	3,987500072E-2
2,439078898E1	1,850749999E-1	6,489999592E-2	9,198749810E-2
2,441095114E1	9,253749996E-2	1,596374959E-1	1,027124971E-1
2,443111352E1	-3,629999980E-2	2,384250015E-1	1,027124971E-1
2,445127569E1	-8,098749816E-2	3,044250011E-1	6,215000153E-2
2,447143785E1	-1,086250022E-1	2,894375026E-1	2,392499894E-2
2,449160000E1	1,801249944E-2	2,224749923E-1	1,649999991E-2
2,451176216E1	1,924999952E-1	1,011999995E-1	6,118749827E-2
2,453192430E1	1,754499972E-1	-8,195000142E-2	9,198749810E-2
2,455208646E1	3,079999983E-2	-1,755875051E-1	1,590874940E-1
2,457224870E1	-1,043625027E-1	-2,382874936E-1	2,239875048E-1
2,459241077E1	-1,991000026E-1	-3,053874969E-1	2,888875008E-1
2,461257299E1	-1,831499934E-1	-1,765500009E-1	3,304125071E-1
2,463273515E1	-2,873750031E-1	1,278750040E-2	3,506250083E-1
2,465289731E1	-4,927999973E-1	1,223749965E-1	3,548874855E-1
2,467305945E1	-5,482124686E-1	1,308999956E-1	4,112625122E-1
2,469322162E1	-4,162124991E-1	1,223749965E-1	3,973749876E-1
2,471338376E1	-3,715249896E-1	6,393750012E-2	3,250499964E-1
2,473354612E1	-2,778874934E-1	-2,873750031E-2	2,846249938E-1
2,475370806E1	-7,988750190E-2	-4,675000161E-2	8,772499859E-2
2,477387020E1	1,637624949E-1	1,544124931E-1	-2,091374993E-1
2,479403255E1	1,116499975E-1	3,331624866E-1	-3,591499925E-1
2,481419469E1	-3,093750030E-2	2,820124924E-1	-3,613499999E-1
2,483435685E1	-1,436875015E-1	-3,506249934E-2	-2,293500006E-1
2,485451898E1	-8,841250092E-2	-2,436500043E-1	-1,559250057E-1
2,487468114E1	-6,819999963E-2	-1,798499972E-1	-1,931875050E-1
2,489484337E1	-2,131249942E-2	-2,606999874E-1	-2,123000026E-1
2,491500545E1	2,227500081E-2	-5,256624818E-1	-1,399749964E-1
2,493516762E1	2,382874936E-1	-4,149749875E-1	-2,560249865E-1
2,495532977E1	4,277625084E-1	7,672499865E-2	-3,198249936E-1
2,497549202E1	7,975000143E-2	2,628999949E-1	-1,473999918E-1
2,499565417E1	-4,503124952E-1	-1,926375031E-1	2,111999989E-1
2,501581635E1	-4,023250043E-1	-3,564000130E-1	4,633750021E-1
2,503597851E1	-1,564749926E-1	-3,299999982E-2	2,750000060E-1
2,505614069E1	-4,056249931E-2	6,524375081E-1	7,603749633E-2
2,507630283E1	-1,065625027E-1	6,939625144E-1	1,068374962E-1
2,509646502E1	-1,905750036E-1	-1,058750041E-2	1,568875015E-1
2,511662716E1	4,028749838E-2	-3,851374984E-1	2,909500003E-1
2,513678933E1	3,521375060E-1	-2,149125040E-1	3,398999870E-1
2,515695170E1	2,297624946E-1	-2,436500043E-1	9,941250086E-2
2,517711361E1	4,881250113E-2	-1,713249981E-1	-8,566249907E-2
2,519727606E1	9,996250272E-2	1,575749964E-1	-1,357125044E-1
2,521743814E1	1,264999993E-2	2,969999909E-1	-1,165999994E-1
2,523760029E1	-1,703625023E-1	1,331000030E-1	8,992499858E-2
2,525776244E1	-1,097249985E-1	2,021249942E-2	2,782999873E-1
2,527792458E1	-9,473749995E-2	-1,765500009E-1	2,729375064E-1
2,529808673E1	1,691249944E-2	-1,159124970E-1	2,325125039E-1
2,531824887E1	1,318625063E-1	7,878749818E-2	8,236250281E-2
2,533841102E1	1,850749999E-1	2,022625059E-1	-4,743750021E-2
2,535857319E1	1,711875051E-1	2,692250013E-1	2,598750032E-2
2,537873532E1	-2,351249941E-2	1,181124970E-1	1,590874940E-1
2,539889757E1	-1,692624986E-1	-1,841125041E-1	2,282499969E-1
2,541905962E1	-1,405249983E-1	-2,755500078E-1	2,601499856E-1
2,543922180E1	1,691249944E-2	1,490499973E-1	1,803999990E-1
2,545938404E1	-1,086250022E-1	4,896374941E-1	3,024999984E-2
2,547954619E1	-3,044250011E-1	4,501749873E-1	-2,818750031E-2
2,549970835E1	-3,502124846E-1	1,021625027E-1	1,111000031E-1
2,551987049E1	-1,852124929E-1	-3,139125109E-1	2,740375102E-1
2,554003265E1	1,084875017E-1	-3,979249895E-1	2,569875121E-1
2,556019503E1	3,777124882E-1	6,462499965E-3	4,097500071E-2
2,558035696E1	2,021249980E-1	2,947999835E-1	-2,868250012E-1
2,560051934E1	-5,224999785E-2	3,756499887E-1	-5,614125133E-1
2,562068128E1	-5,004999787E-2	5,673249960E-1	-5,582500100E-1
2,564084368E1	-1,924999990E-2	2,937000096E-1	-3,592875004E-1
2,566100583E1	-1,607374996E-1	-4,032875001E-1	-2,645500004E-1
2,568116798E1	1,552374959E-1	-1,744875014E-1	-2,261874974E-1
2,570133021E1	3,564000130E-1	3,469125032E-1	-2,463999987E-1
2,572149229E1	-1,607374996E-1	-5,211250111E-2	-3,251875043E-1
2,574165443E1	-2,182125002E-1	-4,883999825E-1	-3,613499999E-1
2,576181657E1	4,596624970E-1	-2,617999911E-1	-1,442375034E-1
2,578197875E1	4,809750021E-1	-4,784999788E-2	7,177499682E-2
2,580214089E1	-3,470500112E-1	-1,978625059E-1	8,030000329E-2
2,582230312E1	-8,439750075E-1	-2,227500081E-2	-7,012499962E-3
2,584246517E1	-6,715499759E-1	2,085874975E-1	-2,406249940E-2
2,586262734E1	-3,991625011E-1	-1,436875015E-1	-1,759999990E-2
2,588278949E1	-1,117874980E-1	-4,468750060E-1	-5,486249924E-2
2,590295164E1	2,755500078E-1	-2,745875120E-1	-6,118749827E-2
2,592311378E1	1,978625059E-1	-1,095874980E-1	-2,176624984E-1
2,594327593E1	-6,929999590E-2	-1,181124970E-1	-3,496625125E-1
2,596343818E1	-1,885125041E-1	-2,436500043E-1	-3,144625127E-1
2,598360033E1	-1,256749928E-1	-4,203374982E-1	-1,729750037E-1
2,600376250E1	8,084999770E-2	-1,776500046E-1	-1,251250058E-1
2,602392487E1	1,179749966E-1	4,108499885E-1	-3,964124918E-1
2,604408703E1	1,340624988E-1	1,139874935E0	-5,795624852E-1
2,606424894E1	6,806249917E-2	9,439374804E-1	-4,294124842E-1
2,608441133E1	-1,299374998E-1	-5,076500177E-1	-1,553750038E-2
2,610457347E1	4,405499995E-1	-1,051324964E0	3,420999944E-1
2,612473563E1	8,746374846E-1	-4,405499995E-1	1,313125044E-1
2,614489780E1	7,118374705E-1	5,065500140E-1	-3,485625088E-1
2,616505996E1	4,574624896E-1	9,600250125E-1	-5,773624778E-1
2,618522210E1	1,361249983E-1	2,437874973E-1	-3,465000093E-1
2,620538426E1	1,581249945E-2	-8,162000179E-1	2,974124849E-1
2,622554642E1	3,564000130E-1	-8,981499672E-1	7,156875134E-1
2,624570859E1	4,553999901E-1	-2,745875120E-1	6,124249697E-1
2,626587050E1	2,989250124E-1	4,449499846E-1	3,154250085E-1
2,628603288E1	-7,878749818E-2	3,299999833E-1	1,335124969E-1
2,630619503E1	-1,607374996E-1	-1,808124930E-1	2,026749998E-1
2,632635717E1	3,085500002E-1	-1,500124931E-1	4,910124838E-1
2,634651933E1	4,926624894E-1	2,373249978E-1	5,814874768E-1
2,636668125E1	1,478125006E-1	4,735499918E-1	4,516874850E-1
2,638684365E1	-2,597374916E-1	4,991250038E-1	3,591499925E-1
2,640700588E1	-3,172124922E-1	4,896374941E-1	2,888875008E-1
2,642716796E1	-1,979999989E-1	3,086875081E-1	2,707374990E-1
2,644733020E1	2,969999984E-2	1,564749926E-1	2,089999914E-1
2,646749235E1	1,947000027E-1	-5,417500064E-2	4,303750023E-2
2,648765450E1	1,776500046E-1	-2,532750070E-1	-5,692499876E-2
2,650781665E1	1,116499975E-1	-3,042874932E-1	-8,676250279E-2
2,652797879E1	2,653750032E-2	-2,245374918E-1	-1,590874940E-1
2,654814093E1	4,358749837E-2	-1,594999991E-2	-1,666499972E-1
2,656830306E1	-4,798749834E-2	4,468749836E-2	-6,022499874E-2
2,658846515E1	-2,320999950E-1	8,415000141E-2	-4,207500070E-2
2,660862729E1	-2,639999986E-1	3,405874968E-1	-1,058750004E-1
2,662878943E1	-2,065249979E-1	5,204374790E-1	-1,080750003E-1
2,664895165E1	-3,715249896E-1	1,498750038E-2	4,413750023E-2
2,666911381E1	-4,375250041E-1	-6,150375009E-1	2,484624982E-1
2,668927588E1	-1,788875014E-1	-6,799374819E-1	3,111625016E-1
2,670943811E1	4,675000161E-2	-3,170749843E-1	1,132999957E-1
2,672960028E1	-2,557500079E-2	-4,262499977E-3	-2,793999910E-1
2,674976244E1	-9,803749621E-2	1,958000064E-1	-4,614500105E-1
2,676992459E1	-1,586750001E-1	1,106875017E-1	-2,815999985E-1
2,679008674E1	-1,937374920E-1	-2,180749923E-1	-6,764999777E-2
2,681024891E1	-7,452499866E-2	-3,107500076E-1	-6,338749826E-2
2,683041106E1	9,350000322E-2	-1,266375035E-1	-3,305499852E-1
2,685057323E1	6,270000339E-2	5,224999785E-2	-5,198875070E-1
2,687073539E1	7,012499869E-2	1,223749965E-1	-5,975750089E-1
2,689089756E1	2,393874973E-1	1,416250020E-1	-5,220875144E-1
2,691105971E1	3,916000128E-1	2,352624983E-1	-2,836624980E-1
2,693122188E1	7,864999771E-2	-6,489999592E-2	8,882500231E-2
2,695138404E1	-4,353249967E-1	-5,171374679E-1	3,431999981E-1
2,697154622E1	-2,651000023E-1	-2,872374952E-1	2,920500040E-1
2,699170861E1	2,553375065E-1	2,703250051E-1	2,303124964E-1
2,701187078E1	3,712499887E-2	3,331624866E-1	1,909874976E-1
2,703203270E1	-6,917625070E-1	-3,511750102E-1	3,154250085E-1
2,705219486E1	-4,587000012E-1	-4,054875076E-1	6,230124831E-1
2,707235725E1	1,691250056E-1	-2,213750035E-1	5,006374717E-1
2,709251939E1	4,010874927E-1	1,064250022E-1	1,111000031E-1
2,711268130E1	1,711875051E-1	1,852124929E-1	-1,612875015E-1
2,713284346E1	-6,929999590E-2	-9,569999576E-2	-1,612875015E-1
2,715300562E1	1,179749966E-1	1,388750039E-2	-1,464374959E-1
2,717316798E1	3,189999983E-2	3,055250049E-1	-4,538874924E-1
2,719332992E1	3,932499886E-2	6,087124944E-1	-5,178250074E-1
2,721349206E1	2,433750033E-2	3,726249933E-2	3,987500072E-2
2,723365422E1	-9,583749622E-2	-9,183624983E-1	5,729625225E-1
2,725381636E1	-3,093750030E-2	-1,005674958E0	1,473999918E-1
2,727397874E1	3,585999906E-1	7,077124715E-1	-2,336124927E-1
2,729414088E1	6,256250143E-1	1,994300008E0	-1,718750000E-1
2,731430302E1	-3,948999941E-1	2,384250015E-1	-5,059999973E-2
2,733446517E1	-4,332624972E-1	-1,114162445E0	3,324750066E-1
2,735462708E1	5,160375237E-1	-4,362874925E-1	4,442625046E-1
2,737478924E1	6,916249990E-1	3,650625050E-1	2,388374954E-1
2,739495162E1	-1,000999957E-1	-8,524999954E-3	3,561250120E-2
2,741511376E1	-2,448875010E-1	-2,319625020E-1	-6,022499874E-2
2,743527593E1	-1,388750039E-2	-1,883749962E-1	-1,186624989E-1
2,745543807E1	9,143749624E-2	-1,127500013E-1	6,118749827E-2
2,747560021E1	2,337500080E-2	-1,383250058E-1	3,282124996E-1
2,749576236E1	4,248749837E-2	9,157499671E-2	1,995124966E-1
2,751592453E1	2,062499989E-3	5,013250113E-1	3,767500073E-2
2,753608677E1	1,264999993E-2	6,769124866E-1	6,641250104E-2
2,755624886E1	-1,968999952E-1	2,287999988E-1	2,208250016E-1
2,757641104E1	-1,054624990E-1	-1,168750040E-2	3,079999983E-1
2,759657318E1	1,073874980E-1	7,342500240E-2	1,835625023E-1
2,761673533E1	8,401250094E-2	1,095874980E-1	-3,891250119E-2
2,763689750E1	-5,335000157E-2	2,777500078E-2	-2,358125001E-1
2,765705969E1	-6,462499965E-3	-6,806249917E-2	-2,730749846E-1
2,767722192E1	1,340624988E-1	-2,308624983E-1	-1,931875050E-1
2,769738406E1	1,787499934E-1	-3,916000128E-1	-1,484999955E-1
2,771754615E1	1,581249945E-2	-4,607625008E-1	-8,249999583E-2
2,773770829E1	3,396249935E-2	-3,822499886E-2	-9,748750180E-2
2,775787048E1	-1,288374960E-1	3,172124922E-1	-1,709125042E-1
2,777803262E1	-2,310000062E-1	3,789499998E-1	-1,123374999E-1
2,779819475E1	-2,565749884E-1	6,283749640E-2	6,861250103E-2
2,781835690E1	-1,469874978E-1	-1,436875015E-1	2,580874860E-1
2,783851912E1	-1,388750039E-2	-2,052875012E-1	4,027374983E-1
2,785868122E1	4,248749837E-2	-2,362249941E-1	3,953124881E-1
2,787884336E1	9,624999948E-4	-2,957625091E-1	2,655124962E-1
2,789900558E1	1,872749925E-1	-1,318625063E-1	7,493750006E-2
2,791916774E1	2,851749957E-1	-5,224999972E-3	-1,979999989E-2
2,793932990E1	1,372250021E-1	8,937499672E-2	-1,484999955E-1
2,795949204E1	-1,704999991E-2	2,373249978E-1	-2,825624943E-1
2,797965413E1	7,864999771E-2	3,235374987E-1	-1,931875050E-1
2,799981638E1	1,819124967E-1	-4,262499977E-3	5,362499878E-2
2,801997877E1	1,893374920E-1	-3,979249895E-1	2,484624982E-1
2,804014071E1	3,617624938E-1	-1,403875053E-1	2,505249977E-1
2,806030286E1	4,681875110E-1	3,129499853E-1	6,435000151E-2
2,808046501E1	3,680875003E-1	4,065875113E-1	-3,575000167E-2
2,810062741E1	2,414499968E-1	8,511249721E-2	1,164624989E-1
2,812078933E1	1,787499934E-1	-2,692250013E-1	4,059000015E-1
2,814095170E1	2,010249943E-1	-2,202749997E-1	5,230500102E-1
2,816111383E1	1,967625022E-1	1,383250058E-1	2,974124849E-1
2,818127598E1	1,542750001E-1	3,926999867E-1	8,139999956E-2
2,820143792E1	9,143749624E-2	2,065249979E-1	1,579875052E-1
2,822160031E1	1,531749964E-1	-5,321250111E-2	4,624125063E-1
2,824176245E1	1,244374961E-1	-8,827500045E-2	5,720000267E-1
2,826192460E1	4,028749838E-2	1,362625062E-1	4,325749874E-1
2,828208677E1	3,616249934E-2	3,607999980E-1	2,814624906E-1
2,830224894E1	-1,099999994E-3	1,872749925E-1	3,016749918E-1
2,832241115E1	-6,710000336E-2	-8,937499672E-2	3,697375059E-1
2,834257298E1	-9,624999948E-3	-1,351625025E-1	3,357749879E-1
2,836273535E1	5,953750014E-2	2,199999988E-3	2,132624984E-1
2,838289750E1	-5,362499971E-3	9,693749994E-2	3,712499980E-3
2,840305966E1	2,859999985E-2	1,798499972E-1	-1,112374961E-1
2,842322181E1	4,028749838E-2	2,958999872E-1	-1,464374959E-1
2,844338398E1	-4,372499883E-2	3,118500113E-1	-1,240250021E-1
2,846354615E1	-6,393750012E-2	3,416875005E-1	-1,229249984E-1
2,848370839E1	-1,160499975E-1	2,767874897E-1	-1,091749966E-1
2,850387053E1	-1,885125041E-1	-1,159124970E-1	1,429999992E-2
2,852403268E1	-1,788875014E-1	-5,649874806E-1	1,824624985E-1
2,854419483E1	1,542750001E-1	-4,223999977E-1	1,463000029E-1
2,856435700E1	6,054124832E-1	8,524999954E-3	-1,581249982E-1
2,858451915E1	6,246625185E-1	3,075875044E-1	-3,921499848E-1
2,860468129E1	2,063875049E-1	2,671625018E-1	-3,346749842E-1
2,862484343E1	-2,182125002E-1	7,424999960E-3	-1,759999990E-2
2,864500558E1	-1,555124968E-1	-1,340624988E-1	1,963499933E-1
2,866516774E1	-2,034999989E-2	1,099999994E-3	2,006125003E-1
2,868532990E1	-1,054624990E-1	1,820500046E-1	8,456250280E-2
2,870549196E1	-2,107875049E-1	1,553750038E-1	2,502499893E-2
2,872565410E1	-1,299374998E-1	-9,487500414E-3	3,135000169E-2
2,874581626E1	6,159999967E-2	-1,201749966E-1	5,774999969E-3
2,876597838E1	2,041874975E-1	-5,211250111E-2	-1,979999989E-2
2,878614054E1	1,168750040E-2	-8,937499672E-2	1,649999991E-2
2,880630268E1	-7,026249915E-2	7,026249915E-2	-7,081250101E-2
2,882646484E1	-1,703625023E-1	2,096875012E-1	-2,219250053E-1
2,884662701E1	-2,352624983E-1	2,320999950E-1	-1,507000029E-1
2,886678917E1	-4,162124991E-1	-1,414874941E-1	1,420374960E-1
2,888695142E1	-4,140124917E-1	-4,468750060E-1	3,569499850E-1
2,890711357E1	-5,335000157E-2	-3,139125109E-1	1,622499973E-1
2,892727573E1	1,999250054E-1	4,578749835E-2	-2,017125040E-1
2,894743788E1	2,265999913E-1	3,022249937E-1	-3,772999942E-1
2,896760006E1	1,042250022E-1	2,182125002E-1	-3,229874969E-1
2,898776222E1	1,264999993E-2	9,267500043E-2	-1,251250058E-1
2,900792437E1	-5,761250108E-2	1,704999991E-2	4,124999978E-4
2,902808647E1	-1,607374996E-1	-8,717499673E-2	-3,244999796E-2
2,904824871E1	-5,651250109E-2	-2,276999950E-1	6,118749827E-2
2,906841087E1	9,033749998E-2	-2,171124965E-1	1,005124971E-1
2,908857296E1	1,264999956E-1	-8,401250094E-2	6,874999963E-3
2,910873513E1	6,063750014E-2	1,670625061E-1	-1,049124971E-1
2,912889730E1	-2,033624947E-1	5,321250111E-2	-4,523750022E-2
2,914905953E1	-2,693625093E-1	-1,201749966E-1	1,175625026E-1
2,916922160E1	-1,234750003E-1	-1,511124969E-1	1,802625060E-1
2,918938375E1	4,028749838E-2	2,241249941E-2	1,223750040E-2
2,920954589E1	4,248749837E-2	2,193125039E-1	-1,900250018E-1
2,922970804E1	3,602499887E-2	2,756874859E-1	-2,655124962E-1
2,924987020E1	-8,208750188E-2	6,819999963E-2	-1,251250058E-1
2,927003235E1	-5,431250110E-2	4,468749836E-2	1,079374999E-1
2,929019448E1	-1,373624951E-1	8,304999769E-2	8,346249908E-2
2,931035665E1	-2,554749846E-1	4,372499883E-2	4,097500071E-2
2,933051880E1	-8,304999769E-2	7,878749818E-2	6,324999779E-2
2,935068093E1	-4,482499883E-2	-1,372250021E-1	8,882500231E-2
2,937084288E1	-2,199999988E-3	-2,436500043E-1	9,624999762E-2
2,939100502E1	1,105500013E-1	-8,717499673E-2	-4,207500070E-2
2,941116717E1	2,127124965E-1	1,128875017E-1	-2,463999987E-1
2,943132930E1	1,702249944E-1	1,331000030E-1	-2,475000024E-1
2,945149169E1	5,211250111E-2	-1,704999991E-2	-6,655000150E-2
2,947165362E1	6,476250291E-2	-2,873750031E-2	1,111000031E-1
2,949181576E1	9,459999949E-2	1,362625062E-1	8,346249908E-2
2,951197791E1	-5,362499971E-3	2,043250054E-1	-5,059999973E-2
2,953214008E1	-1,352999955E-1	4,372499883E-2	-6,448750198E-2
2,955230223E1	-1,490499973E-1	-2,223374993E-1	1,058750004E-1
2,957246461E1	-7,356250286E-2	-3,064875007E-1	1,984124929E-1
2,959262653E1	4,675000161E-2	-1,010624990E-1	1,132999957E-1
2,961278870E1	2,062499989E-3	1,362625062E-1	-4,207500070E-2
2,963295084E1	-2,107875049E-1	2,021249942E-2	-6,228749827E-2
2,965311301E1	-2,501125038E-1	-5,211250111E-2	2,598750032E-2
2,967327518E1	-1,607374996E-1	-3,189999983E-2	8,937500417E-3
2,969343731E1	-5,362499971E-3	1,075249985E-1	-1,336500049E-1
2,971359947E1	2,543750033E-2	2,043250054E-1	-2,804999948E-1
2,973376165E1	2,337500080E-2	3,150124848E-1	-3,570874929E-1
2,975392378E1	-4,056249931E-2	2,649624944E-1	-3,389374912E-1
2,977408594E1	-7,356250286E-2	6,173750013E-2	-2,102375031E-1
2,979424801E1	-1,757249981E-1	-3,319250047E-1	-1,553750038E-2
2,981441022E1	-6,187500060E-2	-5,330874920E-1	1,718750000E-1
2,983457231E1	2,255000025E-1	-3,788124919E-1	7,067500055E-2
2,985473447E1	3,905000091E-1	-5,101250112E-2	-2,677125037E-1
2,987489660E1	3,873375058E-1	2,512125075E-1	-3,465000093E-1
2,989505876E1	8,827500045E-2	7,026249915E-2	-1,379124969E-1
2,991522090E1	-1,640374959E-1	-2,223374993E-1	1,920875013E-1
2,993538304E1	-1,501500010E-1	-2,106499970E-1	3,154250085E-1
2,995554520E1	-2,182125002E-1	-8,621250093E-2	2,089999914E-1
2,997570734E1	-2,767874897E-1	2,241249941E-2	6,861250103E-2
2,999586947E1	-1,842499971E-1	-4,262499977E-3	-2,612499893E-2
3,001603165E1	3,616249934E-2	-2,062499989E-3	-5,692499876E-2
3,003619379E1	1,095874980E-1	7,562499959E-3	-8,992499858E-2
3,005635596E1	1,904374957E-1	6,710000336E-2	-1,772374958E-1
3,007651814E1	1,318625063E-1	-1,058750041E-2	-1,314499974E-1
3,009668006E1	-7,246249914E-2	-1,192125008E-1	-3,671250120E-2
3,011684223E1	-2,619374990E-1	-1,798499972E-1	-1,223750040E-2
3,013700438E1	-8,841250092E-2	-1,064250022E-1	-2,076249942E-2
3,015716654E1	6,063750014E-2	-3,506249934E-2	-1,357125044E-1
3,017732870E1	5,307500064E-2	-8,937499672E-2	-1,911250055E-1
3,019749109E1	7,012499869E-2	-1,872749925E-1	-8,786249906E-2
3,021765302E1	1,702249944E-1	-2,468124926E-1	7,397499681E-2
3,023781517E1	2,701874971E-1	-1,702249944E-1	7,713750005E-2
3,025797732E1	1,808124930E-1	-4,564999789E-2	-4,523750022E-2
3,027813948E1	1,053249985E-1	2,054249942E-1	-1,058750004E-1
3,029830161E1	-1,799875051E-1	1,703625023E-1	-7,507500052E-2
3,031846377E1	-3,320625126E-1	7,026249915E-2	6,324999779E-2
3,033862591E1	-2,831124961E-1	-1,850749999E-1	3,484250009E-1
3,035878808E1	7,975000143E-2	-3,309625089E-1	5,262125134E-1
3,037895022E1	4,692874849E-1	-1,670625061E-1	3,122625053E-1
3,039911228E1	4,596624970E-1	1,596374959E-1	-1,388749927E-1
3,041927442E1	1,425874978E-1	3,661625087E-1	-1,996500045E-1
3,043943659E1	-1,267749965E-1	1,501500010E-1	9,624999762E-2
3,045959882E1	-2,821500003E-1	-1,340624988E-1	3,495250046E-1
3,047976097E1	-1,171500012E-1	1,924999990E-2	3,293125033E-1
3,049992312E1	1,467124969E-1	3,491125107E-1	4,303750023E-2
3,052008521E1	1,020250022E-1	3,342624903E-1	-2,421374917E-1
3,054024735E1	-3,203750029E-2	1,331000030E-1	-2,155999988E-1
3,056040951E1	-1,099999994E-3	-9,473749995E-2	-4,839999974E-2
3,058057168E1	6,270000339E-2	-1,724250019E-1	-3,712499980E-3
3,060073392E1	9,886249900E-2	-3,822499886E-2	-6,228749827E-2
3,062089599E1	1,201749966E-1	1,692624986E-1	-2,452999949E-1
3,064105815E1	-1,924999990E-2	1,405249983E-1	-3,719374835E-1
3,066122030E1	-8,304999769E-2	2,777500078E-2	-2,282499969E-1
3,068138245E1	-4,482499883E-2	-1,031249985E-1	4,839999974E-2
3,070154461E1	2,479124963E-1	1,594999991E-2	1,440999955E-1
3,072170677E1	3,702875078E-1	1,011999995E-1	-2,296249941E-2
3,074186893E1	2,798124850E-1	2,554749846E-1	-1,815000027E-1
3,076203107E1	-4,262499884E-2	2,820124924E-1	-1,750375032E-1
3,078219323E1	-5,130124688E-1	-1,585374922E-1	1,249874979E-1
3,080235515E1	-5,396875143E-1	-3,969624937E-1	4,229499996E-1
3,082251753E1	-3,268375099E-1	-3,596999943E-1	2,675749958E-1
3,084267967E1	-2,512125075E-1	-3,150124848E-1	-4,743750021E-2
3,086284182E1	-1,267749965E-1	-2,052875012E-1	-3,826625049E-1
3,088300398E1	-3,409999982E-2	-2,425500005E-1	-5,198875070E-1
3,090316611E1	8,511249721E-2	-2,074874938E-1	-4,262500107E-1
3,092332826E1	1,307625026E-1	-1,170125008E-1	-2,623499930E-1
3,094349018E1	6,049999967E-2	-3,616249934E-2	-1,197625026E-1
3,096365256E1	-2,983750030E-2	-1,484999992E-2	-1,379124969E-1
3,098381472E1	-5,967500061E-2	9,363749623E-2	-2,847625017E-1
3,100397686E1	8,717499673E-2	1,331000030E-1	-2,580874860E-1
3,102413901E1	1,978625059E-1	-1,841125041E-1	-5,706249923E-2
3,104430116E1	3,894000053E-1	-4,298250079E-1	8,662500232E-2
3,106446331E1	4,989874959E-1	-3,617624938E-1	2,282499894E-2
3,108462548E1	3,404499888E-1	-1,585374922E-1	-8,786249906E-2
3,110478762E1	-1,388750039E-2	-2,653750032E-2	-6,338749826E-2
3,112494977E1	-2,927374840E-1	-1,830125004E-1	1,409374923E-1
3,114511171E1	-2,022625059E-1	-3,053874969E-1	4,952749908E-1
3,116527387E1	-1,193500012E-1	-3,022249937E-1	6,708624959E-1
3,118543602E1	-2,182125002E-1	-1,883749962E-1	5,889124870E-1
3,120559816E1	-2,725250125E-1	1,924999990E-2	4,740999937E-1
3,122576033E1	-2,054249942E-1	2,745875120E-1	3,515875041E-1
3,124592242E1	-1,342000067E-1	4,342249930E-1	1,909874976E-1
3,126608459E1	-7,562500238E-2	4,438500106E-1	9,941250086E-2
3,128624675E1	4,881250113E-2	3,150124848E-1	1,218250021E-1
3,130640891E1	2,106499970E-1	9,047500044E-2	6,008749828E-2
3,132657106E1	2,616625130E-1	-8,937499672E-2	-4,207500070E-2
3,134673321E1	2,968625128E-1	2,199999988E-3	-9,418749809E-2
3,136689544E1	2,798124850E-1	1,991000026E-1	-1,718750000E-1
3,138705759E1	1,585374922E-1	3,022249937E-1	-2,208250016E-1
3,140721972E1	1,627999991E-1	2,938374877E-1	-2,406249940E-2
3,142738181E1	1,307625026E-1	7,672499865E-2	2,824249864E-1
3,144754396E1	1,154999994E-2	-1,394249946E-1	5,037999749E-1
3,146770611E1	-3,836249933E-2	9,624999948E-3	5,325375199E-1
3,148786834E1	-1,043625027E-1	2,341624945E-1	3,282124996E-1
3,150803042E1	-7,878749818E-2	3,405874968E-1	1,398375034E-1
3,152819235E1	2,227500081E-2	4,714874923E-1	-7,974999957E-3
3,154835473E1	-6,283749640E-2	4,481124878E-1	-6,118749827E-2
3,156851667E1	-1,438249946E-1	2,820124924E-1	-1,017499994E-2
3,158867881E1	-1,597750038E-1	2,241249941E-2	-2,612499893E-2
3,160884119E1	5,211250111E-2	-2,227500081E-2	-1,666499972E-1
3,162900310E1	2,340250015E-1	1,968999952E-1	-4,390375018E-1
3,164916527E1	1,616999954E-1	4,204750061E-1	-5,997750163E-1
3,166932735E1	2,433750033E-2	4,714874923E-1	-4,996750057E-1
3,168948960E1	-4,460499883E-1	-1,351625025E-1	-1,219625026E-1
3,170965168E1	-5,406500101E-1	-5,533000231E-1	3,059374988E-1
3,172981383E1	-2,139499933E-1	-3,905000091E-1	3,825249970E-1
3,174997599E1	-1,405249983E-1	-7,658749819E-2	1,292500049E-1
3,177013824E1	-9,583749622E-2	2,022625059E-1	-1,612875015E-1
3,179030031E1	-9,693749994E-2	9,363749623E-2	-1,846625060E-1
3,181046247E1	-1,374999993E-4	-1,425874978E-1	-5,279999971E-2
3,183062461E1	2,479124963E-1	7,026249915E-2	-1,282874942E-1
3,185078653E1	1,244374961E-1	2,682625055E-1	-3,027749956E-1
3,187094868E1	-1,544124931E-1	2,458499968E-1	-2,953499854E-1
3,189111103E1	-4,523749948E-1	-1,394249946E-1	-1,985500008E-1
3,191127317E1	-4,013625085E-1	-3,724874854E-1	-3,849999979E-3
3,193143509E1	-3,946249932E-2	-3,628624976E-1	7,919999957E-2
3,195159725E1	7,232499868E-2	-4,468750060E-1	-2,832499892E-2
3,197175941E1	2,362249941E-1	-2,499749959E-1	-2,134000063E-1
3,199192156E1	3,628624976E-1	6,393750012E-2	-3,602499962E-1
3,201208373E1	2,265999913E-1	2,131249942E-2	-2,847625017E-1
3,203224587E1	-1,498750038E-2	-3,162499983E-3	-1,333750039E-2
3,205240803E1	-2,224749923E-1	-9,624999948E-4	-1,649999991E-3
3,207257020E1	-3,129499853E-1	2,241249941E-2	-1,271875054E-1
3,209273234E1	-2,150499970E-1	5,362499971E-3	-4,207500070E-2
3,211289441E1	-1,533125043E-1	-3,053874969E-1	-7,974999957E-3
3,213305657E1	1,776500046E-1	-3,437500000E-1	-5,912499968E-3
3,215321874E1	3,862375021E-1	-2,052875012E-1	8,236250281E-2
3,217338090E1	4,358749837E-2	-2,712875009E-1	1,047749966E-1
3,219354306E1	-2,469500005E-1	-4,021874964E-1	2,100999951E-1
3,221370523E1	-5,004999787E-2	-1,904374957E-1	1,111000031E-1
3,223386721E1	9,679999948E-2	1,149500012E-1	-2,421374917E-1
3,225402956E1	2,969999984E-2	3,746874928E-1	-3,422375023E-1
3,227419172E1	-1,991000026E-1	2,310000062E-1	-1,698125005E-1
3,229435362E1	-3,576374948E-1	-4,032875001E-1	1,366750002E-1
3,231451578E1	3,822499886E-2	-6,235625148E-1	2,707374990E-1
3,233467794E1	4,522374868E-1	-3,841750026E-1	8,772499859E-2
3,235484008E1	4,448125064E-1	1,168750040E-2	-2,326499969E-1
3,237500224E1	1,680250019E-1	1,490499973E-1	-2,250874937E-1
3,239516439E1	-1,959374994E-1	-5,953750014E-2	6,544999778E-2
3,241532648E1	-4,193750024E-1	-4,948624969E-1	3,995749950E-1
3,243548863E1	-1,544124931E-1	-5,512375236E-1	5,825874805E-1
3,245565081E1	8,607500046E-2	-3,031874895E-1	3,282124996E-1
3,247581294E1	9,886249900E-2	1,703625023E-1	-8,992499858E-2
3,249597506E1	6,476250291E-2	6,811749935E-1	-3,145999908E-1
3,251613722E1	-2,534124851E-1	3,150124848E-1	-3,081375062E-1
3,253629937E1	-4,204750061E-1	-5,182374716E-1	-1,027124971E-1
3,255646151E1	2,744500041E-1	-3,574999869E-1	1,420374960E-1
3,257662367E1	5,746124983E-1	1,362625062E-1	1,223750040E-2
3,259678559E1	1,648624986E-1	2,905375063E-1	-1,846625060E-1
3,261694774E1	-3,959999979E-1	1,171500012E-1	-1,347499937E-1
3,263710990E1	-5,524749756E-1	-2,223374993E-1	1,025749967E-1
3,265727204E1	-2,714250088E-1	-3,851374984E-1	2,814624906E-1
3,267743419E1	5,224999972E-3	-2,681249976E-1	2,994749844E-1
3,269759655E1	-1,160499975E-1	-4,675000161E-2	1,505624950E-1
3,271775846E1	-4,151124954E-1	-8,524999954E-3	-1,443750039E-2
3,273792061E1	-6,034874916E-1	1,362625062E-1	8,139999956E-2
3,275808277E1	-6,620625257E-1	1,011999995E-1	4,070000052E-1
3,277824492E1	-7,907624841E-1	-5,586624742E-1	5,399624705E-1
3,279840701E1	-3,363249898E-1	-5,703499913E-1	4,335374832E-1
3,281856917E1	8,923749626E-2	-1,374999993E-2	1,685750037E-1
3,283873135E1	-2,983750030E-2	1,373624951E-1	-4,853750020E-2
3,285889350E1	-1,788875014E-1	-2,957625091E-1	-1,666499972E-1
3,287905568E1	3,862375021E-1	-3,936625123E-1	-1,942874938E-1
3,289921784E1	8,523625135E-1	-3,822499886E-2	-2,591874897E-1
3,291938001E1	5,234624743E-1	2,351249941E-2	-3,294500113E-1
3,293954217E1	1,329624951E-1	7,562500238E-2	-3,070375025E-1
3,295970412E1	5,101250112E-2	2,011625022E-1	-1,006499976E-1
3,297986651E1	-4,372499883E-2	-6,599999964E-2	1,845249981E-1
3,300002869E1	-3,519999981E-2	-4,628250003E-1	4,867500067E-1
3,302019060E1	2,809124887E-1	-3,372874856E-1	4,783625007E-1
3,304035279E1	4,127750099E-1	2,557500079E-2	1,782000065E-1
3,306051494E1	1,467124969E-1	1,436875015E-1	-1,223750040E-2
3,308067708E1	-9,583749622E-2	7,988750190E-2	6,861250103E-2
3,310083925E1	-3,299999982E-3	1,618375033E-1	5,156249925E-2
3,312100132E1	-8,524999768E-2	4,023250043E-1	1,377750039E-1
3,314116347E1	-5,417500138E-1	2,406249940E-1	3,313750029E-1
3,316132562E1	-5,673249960E-1	-1,361249983E-1	3,102000058E-1
3,318148778E1	2,543750033E-2	2,076250017E-1	2,536875010E-1
3,320164992E1	-1,065625027E-1	3,172124922E-1	1,090374961E-1
3,322181205E1	-4,939000010E-1	-1,681624949E-1	-7,081250101E-2
3,324197418E1	-2,129874974E-1	-2,160124928E-1	7,177499682E-2
3,326213633E1	-8,841250092E-2	1,099999994E-3	5,472499877E-2
3,328229823E1	-4,736874998E-1	6,462499965E-3	1,696749926E-1
3,330246034E1	-8,940249681E-1	-3,521375060E-1	3,836250007E-1
3,332262248E1	-7,673875093E-1	-5,427125096E-1	1,440999955E-1
3,334278463E1	-1,171500012E-1	2,033624947E-1	-1,134374961E-1
3,336294675E1	-2,267374992E-1	3,926999867E-1	-1,911250055E-1
3,338310884E1	-6,780124903E-1	-5,213999748E-1	-3,880249858E-1
3,340327102E1	1,318625063E-1	-3,766124845E-1	-3,326124847E-1
3,342343316E1	6,448749900E-1	2,384250015E-1	-3,148749843E-2
3,344359532E1	-1,097249985E-1	-1,064250022E-1	-4,949999973E-2
3,346375747E1	-2,586374879E-1	-2,617999911E-1	-1,623875052E-1
3,348391964E1	2,319625020E-1	2,373249978E-1	-2,571249902E-1
3,350408179E1	2,926000059E-1	5,960624814E-1	-4,017750025E-1
3,352424393E1	6,379999965E-2	4,598000050E-1	-4,868874848E-1
3,354440608E1	6,902500242E-2	-3,606624901E-1	-3,272500038E-1
3,356456824E1	7,023500204E-1	-5,395500064E-1	-3,837625086E-1
3,358473017E1	1,240800023E0	1,905750036E-1	-6,455624700E-1
3,360489234E1	8,566250205E-1	6,971250176E-1	-7,358999848E-1
3,362505453E1	9,350000322E-2	4,981625080E-1	-6,199874878E-1
3,364521669E1	-1,746249944E-1	4,544374943E-1	-4,092000127E-1
3,366537885E1	-1,863124967E-1	4,725874960E-1	-2,722499892E-2
3,368554094E1	-3,672625124E-1	-2,490125000E-1	5,048999786E-1
3,370570309E1	-2,241249941E-2	-1,127500013E-1	5,464249849E-1
3,372586522E1	1,797125041E-1	8,333874941E-1	1,665125042E-1
3,374602738E1	-3,001624942E-1	9,439374804E-1	-5,279999971E-2
3,376618931E1	-7,577624917E-1	-1,967625022E-1	4,857875109E-1
3,378635170E1	-7,864999771E-1	-1,273800015E0	1,303087473E0
3,380651360E1	-5,534374714E-1	-9,279875159E-1	1,484037519E0
3,382667597E1	-5,152124763E-1	2,480500042E-1	9,986624718E-1
3,384683814E1	-6,546375155E-1	8,769749999E-1	2,707374990E-1
3,386700008E1	-5,992249846E-1	4,991250038E-1	-3,060750067E-1
3,388716247E1	2,969999984E-2	1,064250022E-1	-6,550499797E-1
3,390732438E1	8,364124894E-1	5,278624892E-1	-8,115249872E-1
3,392748651E1	9,960500002E-1	1,003612518E0	-9,361000061E-1
3,394764863E1	6,810374856E-1	1,002512455E0	-9,796875119E-1
3,396781077E1	3,553000093E-1	3,342624903E-1	-6,072000265E-1
3,398797294E1	2,564375103E-1	-7,975000143E-2	-1,709125042E-1
3,400813500E1	3,999874890E-1	1,937374920E-1	1,218250021E-1
3,402829716E1	-7,782500237E-2	-7,566624880E-1	6,901124716E-1
3,404845932E1	-6,928625107E-1	-2,795650005E0	1,591424942E0
3,406862126E1	9,886249900E-2	-2,010250092E0	1,103024960E0
3,408878343E1	5,234624743E-1	2,873750031E-2	-1,634874940E-1
3,410894557E1	-2,065249979E-1	5,938624740E-1	-1,484999955E-1
3,412910772E1	-6,556000113E-1	3,246375024E-1	2,165624946E-1
3,414926989E1	-5,335000157E-2	1,139874935E0	9,088750184E-2
3,416943196E1	-1,203124970E-1	1,629374981E0	-2,326499969E-1
3,418959412E1	-4,981625080E-1	1,154724956E0	-1,825999916E-1
3,420975626E1	-6,663249731E-1	1,331000030E-1	1,512499992E-3
3,422991843E1	-3,683624864E-1	-4,863374829E-1	-2,400749922E-1
3,425008060E1	2,840749919E-1	-3,894000053E-1	-4,145624936E-1
3,427024253E1	4,852375090E-1	-4,713499844E-1	-3,113000095E-1
3,429040470E1	3,191374838E-1	-7,895249724E-1	-1,612875015E-1
3,431056685E1	4,138749838E-1	-4,351874888E-1	-3,294500113E-1
3,433072900E1	3,467749953E-1	6,173750013E-2	-3,900874853E-1
3,435089114E1	-2,426874936E-1	-2,660624981E-1	-1,911250055E-1
3,437105333E1	-4,629625082E-1	-6,810374856E-1	-1,979999989E-2
3,439121548E1	-5,224999785E-2	-3,713875115E-1	-1,878249943E-1
3,441137756E1	2,712875009E-1	2,447499931E-1	-4,709374905E-1
3,443153980E1	-8,731249720E-2	-2,138125002E-1	-5,400999784E-1
3,445170186E1	-3,320625126E-1	-8,608874679E-1	-2,208250016E-1
3,447186408E1	-1,924999990E-2	-5,117750168E-1	1,111000031E-1
3,449202615E1	1,179749966E-1	2,469500005E-1	1,101374999E-1
3,451218830E1	-3,299999982E-3	1,067412496E0	8,882500231E-2
3,453235047E1	-4,662624896E-1	9,982500076E-1	2,026749998E-1
3,455251261E1	-9,589250088E-1	-3,616249934E-2	4,815250039E-1
3,457267477E1	-5,183749795E-1	-4,724499881E-1	6,326375008E-1
3,459283672E1	3,139125109E-1	3,203750029E-2	2,367749959E-1
3,461299886E1	5,596249700E-1	2,788499892E-1	-3,858250082E-1
3,463316101E1	4,756124914E-1	9,899999946E-2	-6,859874725E-1
3,465332309E1	5,043500066E-1	7,672499865E-2	-5,486249924E-1
3,467348526E1	4,096125066E-1	9,693749994E-2	-2,580874860E-1
3,469364737E1	1,478125006E-1	-2,074874938E-1	1,649999991E-2
3,471380951E1	-4,688749835E-2	-9,630500078E-1	2,026749998E-1
3,473397164E1	1,381874979E-1	-1,171637535E0	1,622499973E-1
3,475413357E1	5,937250257E-1	-2,521750033E-1	4,124999978E-4
3,477429574E1	4,883999825E-1	6,044499874E-1	-1,304875016E-1
3,479445791E1	-3,001624942E-1	3,616249934E-2	-2,722499892E-2
3,481462007E1	-4,332624972E-1	-5,278624892E-1	2,792625129E-1
3,483478215E1	2,701874971E-1	3,946249932E-2	6,751249731E-2
3,485494439E1	5,128750205E-1	1,089825034E0	-3,911874890E-1
3,487510646E1	1,520749927E-1	1,206837535E0	-6,507874727E-1
3,489526862E1	-1,277374923E-1	-1,168750040E-2	-7,167875171E-1
3,491543077E1	6,011499763E-1	-6,044499874E-1	-7,275124788E-1
3,493559292E1	1,134374976E0	1,086250022E-1	-9,424250126E-1
3,495575484E1	6,001874804E-1	5,885000229E-1	-9,646999836E-1
3,497591701E1	-3,852750063E-1	1,149500012E-1	-5,476624966E-1
3,499607915E1	-8,089125156E-1	-4,585624933E-1	1,512499992E-3
3,501624129E1	-5,491750240E-1	-5,086125135E-1	4,974749982E-1
3,503640337E1	-4,108499885E-1	-5,256624818E-1	8,327000141E-1
3,505656557E1	-5,471125245E-1	-6,480374932E-1	9,402250051E-1
3,507672763E1	-5,843750238E-1	-5,692499876E-1	9,029625058E-1
3,509688985E1	-5,832750201E-1	-5,768125057E-1	8,358625174E-1
3,511705194E1	-5,417500138E-1	-5,288249850E-1	6,017000079E-1
3,513721407E1	-2,215124965E-1	1,852124929E-1	2,888875008E-1
3,515737598E1	-1,234750003E-1	8,205999732E-1	-5,802499875E-2
3,517753813E1	-1,660999954E-1	1,079100013E0	-3,220250010E-1
3,519770051E1	-4,798749834E-2	1,072775006E0	-4,188250005E-1
3,521786245E1	6,270000339E-2	6,247999668E-1	-4,039750099E-1
3,523802459E1	2,297624946E-1	1,106875017E-1	-2,463999987E-1
3,525818668E1	2,723875046E-1	-3,117125034E-1	-1,069749966E-1
3,527834885E1	2,329249978E-1	-5,054500103E-1	4,729999974E-2
3,529851101E1	1,073874980E-1	-9,459999800E-1	3,250499964E-1
3,531867315E1	-1,171500012E-1	-1,763299942E0	5,251125097E-1
3,533883509E1	1,446499974E-1	-1,537662506E0	2,282499969E-1
3,535899746E1	5,766749978E-1	-2,990624905E-1	-1,304875016E-1
3,537915938E1	3,074499965E-1	3,129499853E-1	-3,229874969E-1
3,539932153E1	-1,501500010E-1	-1,287000030E-1	-4,444000125E-1
3,541948371E1	9,776250273E-2	1,553750038E-1	-2,655124962E-1
3,543964586E1	1,754499972E-1	7,056499720E-1	-1,027124971E-1
3,545980794E1	-3,075875044E-1	4,927999973E-1	4,509999976E-2
3,547997009E1	-4,523749948E-1	2,820124924E-1	3,037374914E-1
3,550013234E1	-3,576374948E-1	2,842124999E-1	4,166249931E-1
3,552029442E1	-4,034250081E-1	-5,637500063E-2	3,313750029E-1
3,554045657E1	-2,193125039E-1	-4,670875072E-1	2,123000026E-1
3,556061851E1	1,053249985E-1	-6,342874765E-1	9,941250086E-2
3,558078068E1	1,691250056E-1	-5,480750203E-1	-2,749999985E-3
3,560094282E1	1,801249944E-2	-2,947999835E-1	-1,006499976E-1
3,562110499E1	-1,160499975E-1	-1,372250021E-1	-1,538625062E-1
3,564126708E1	-7,026249915E-2	1,086250022E-1	-2,475000024E-1
3,566142924E1	1,127500013E-1	6,290624738E-1	-3,932499886E-1
3,568159141E1	3,500750065E-1	1,165312529E0	-5,391374826E-1
3,570175357E1	5,266249776E-1	1,068512440E0	-5,476624966E-1
3,572191570E1	5,171374679E-1	-1,064250022E-1	-2,708750069E-1
3,574207761E1	7,991499901E-1	-9,864249825E-1	8,882500231E-2
3,576223977E1	1,108799934E0	-7,811374664E-1	1,036750004E-1
3,578240194E1	7,023500204E-1	-3,489750028E-1	-1,006499976E-1
3,580256401E1	1,031249985E-1	-1,021625027E-1	-4,633750021E-2
3,582272617E1	-1,799875051E-1	-9,363749623E-2	3,059374988E-1
3,584288832E1	-2,916375101E-1	-6,063750014E-2	6,070625186E-1
3,586305046E1	-3,097875118E-1	-3,299999982E-2	6,708624959E-1
3,588321237E1	-1,692624986E-1	-4,468749836E-2	5,304750204E-1
3,590337451E1	-6,283749640E-2	-2,468124926E-1	3,059374988E-1
3,592353666E1	7,755000144E-2	-2,638624907E-1	1,058750004E-1
3,594369903E1	1,105500013E-1	1,097249985E-1	-2,928750031E-2
3,596386095E1	-7,356250286E-2	5,725499988E-1	-8,786249906E-2
3,598402310E1	-2,299000025E-1	8,194999695E-1	-8,043749630E-2
3,600418526E1	-2,054249942E-1	7,471749783E-1	-5,169999972E-2
3,602434740E1	-1,388750039E-2	4,236375093E-1	-3,464999795E-2
3,604450958E1	2,457125038E-1	6,283749640E-2	-8,470000327E-2
3,606467166E1	4,670875072E-1	-1,542750001E-1	-7,301250100E-2
3,608483382E1	4,149749875E-1	-4,448125064E-1	2,914999984E-2
3,610499597E1	2,926000059E-1	-5,256624818E-1	1,207249984E-1
3,612515811E1	2,201374918E-1	-3,532375097E-1	1,132999957E-1
3,614532004E1	8,827500045E-2	-2,085874975E-1	1,238875017E-1
3,616548217E1	-2,777500078E-2	-4,895000160E-2	1,685750037E-1
3,618564425E1	-8,841250092E-2	3,140499890E-1	2,633124888E-1
3,620580641E1	-3,194124997E-1	3,522749841E-1	3,793624938E-1
3,622596856E1	-4,694249928E-1	2,447500080E-2	4,943124950E-1
3,624613049E1	-3,257375062E-1	-1,691250056E-1	4,208875000E-1
3,626629287E1	8,084999770E-2	1,436875015E-1	5,788749829E-2
3,628645482E1	1,563374996E-1	4,310624897E-1	-2,187625021E-1
3,630661696E1	-2,161500007E-1	5,967500061E-2	-1,516624987E-1
3,632677904E1	-3,587374985E-1	-2,766500115E-1	8,662500232E-2
3,634694128E1	-1,043625027E-1	5,362499971E-3	1,058750004E-1
3,636710344E1	-2,983750030E-2	4,416500032E-1	-8,043749630E-2
3,638726551E1	-2,557500079E-2	6,886000037E-1	-3,027749956E-1
3,640742774E1	-6,283749640E-2	3,693250120E-1	-3,635500073E-1
3,642758981E1	-6,819999963E-2	-2,223374993E-1	-2,560249865E-1
3,644775198E1	2,227500081E-2	-5,894625187E-1	-1,017499994E-2
3,646791414E1	1,042250022E-1	-6,309875250E-1	4,839999974E-2
3,648807609E1	9,996250272E-2	-3,682250082E-1	-4,317500070E-2
3,650823816E1	1,244374961E-1	1,458874941E-1	-1,431374997E-1
3,652840031E1	2,062499989E-3	3,309625089E-1	-1,570249945E-1
3,654856246E1	-6,393750012E-2	3,129499853E-1	-1,649999991E-2
3,656872462E1	-1,108250022E-1	-1,278750040E-2	2,250874937E-1
3,658888658E1	-7,562500238E-2	-3,128125072E-1	2,814624906E-1
3,660904871E1	1,350249946E-1	-9,679999948E-2	5,266249925E-2
3,662921087E1	2,436500043E-1	3,682250082E-1	-3,443000019E-1
3,664937303E1	2,414499968E-1	5,545374751E-1	-4,444000125E-1
3,666953510E1	5,953750014E-2	4,798749834E-2	-2,250874937E-1
3,668969725E1	-8,524999768E-2	-5,554999709E-1	3,135000169E-2
3,670985940E1	1,648624986E-1	-3,011249900E-1	6,641250104E-2
3,673002134E1	2,968625128E-1	1,788875014E-1	-1,410750002E-1
3,675018347E1	1,765500009E-1	1,245749965E-1	-2,953499854E-1
3,677034584E1	6,476250291E-2	4,468749836E-2	-2,124374956E-1
3,679050776E1	-3,519999981E-2	1,948374957E-1	-6,544999778E-2
3,681066989E1	-5,362499971E-3	3,596999943E-1	7,493750006E-2
3,683083197E1	-7,356250286E-2	1,138499975E-1	2,154625058E-1
3,685099413E1	-1,256749928E-1	-1,659625024E-1	3,218874931E-1
3,687115629E1	-1,342000067E-1	-3,649249971E-1	2,271499932E-1
3,689131845E1	1,947000027E-1	1,924999990E-2	1,966249943E-2
3,691148035E1	4,958249927E-1	6,715499759E-1	-1,271875054E-1
3,693164250E1	1,329624951E-1	3,917374909E-1	-6,655000150E-2
3,695180463E1	-3,544749916E-1	-4,214375019E-1	2,729375064E-1
3,697196699E1	-1,894749999E-1	-4,490749836E-1	5,197499990E-1
3,699212892E1	1,318625063E-1	3,470500112E-1	2,622124851E-1
3,701229099E1	1,754499972E-1	1,052562475E0	-7,191249728E-2
3,703245315E1	-4,688749835E-2	6,129750013E-1	-6,022499874E-2
3,705261529E1	-4,672249854E-1	-9,183624983E-1	2,505249977E-1
3,707277747E1	9,143749624E-2	-6,480374932E-1	1,984124929E-1
3,709293940E1	6,022499800E-1	6,971250176E-1	-8,043749630E-2
3,711310148E1	8,923749626E-2	5,300624967E-1	-1,868624985E-1
3,713326371E1	-4,119499922E-1	-3,979249895E-1	-3,355000168E-2
3,715342578E1	2,117500082E-2	-4,468749836E-2	-2,502499893E-2
3,717358793E1	2,542375028E-1	6,012874842E-1	-2,400749922E-1
3,719375008E1	-4,908749834E-2	3,246375024E-1	-1,751749963E-1
3,721391223E1	-2,384250015E-1	-3,606624901E-1	1,548250020E-1
3,723407414E1	-1,809500009E-1	-6,671500206E-1	1,887875050E-1
3,725423631E1	1,053249985E-1	-7,658749819E-2	2,708750032E-2
3,727439841E1	9,624999948E-4	4,916999936E-1	-9,418749809E-2
3,729456058E1	-3,299999833E-1	2,958999872E-1	3,451250121E-2
3,731472274E1	-4,725874960E-1	-1,606000066E-1	1,249874979E-1
3,733488492E1	-5,967500061E-2	1,351625025E-1	1,451999992E-1
3,735504708E1	1,435499936E-1	3,906374872E-1	1,941500008E-1
3,737520926E1	-2,459875047E-1	-6,586249918E-2	3,987500072E-2
3,739537119E1	-1,788875014E-1	-6,324999966E-3	-1,060125008E-1
3,741553337E1	1,999250054E-1	4,247374833E-1	-1,006499976E-1
3,743569544E1	-1,193500012E-1	-2,149125040E-1	-3,891250119E-2
3,745585761E1	-1,991000026E-1	-9,077749848E-1	-7,507500052E-2
3,747601979E1	4,553999901E-1	-2,404875010E-1	-2,996124923E-1
3,749618193E1	6,139374971E-1	6,215000153E-1	-5,156250000E-1
3,751634406E1	1,159124970E-1	4,321624935E-1	-4,742375016E-1
3,753650599E1	-3,353624940E-1	-4,021874964E-1	-1,304875016E-1
3,755666813E1	-5,115000159E-2	-5,777750015E-1	1,654125005E-1
3,757683018E1	4,212999940E-1	1,362625062E-1	6,641250104E-2
3,759699240E1	3,425124884E-1	7,162374854E-1	-6,558749825E-2
3,761715446E1	-3,203750029E-2	4,885374904E-1	-1,333750039E-2
3,763731660E1	-4,534749985E-1	-5,022875071E-1	1,153625026E-1
3,765747850E1	-2,557500079E-2	-4,703874886E-1	1,515250057E-1
3,767764065E1	5,916625261E-1	4,204750061E-1	-7,397499681E-2
3,769780279E1	4,468750060E-1	6,789749861E-1	-2,580874860E-1
3,771796492E1	-3,629999980E-2	2,406249940E-1	-2,293500006E-1
3,773812701E1	-3,917374909E-1	-4,713499844E-1	-3,464999795E-2
3,775828916E1	1,484999992E-2	-1,904374957E-1	1,047749966E-1
3,777845132E1	1,776500046E-1	2,373249978E-1	5,266249925E-2
3,779861324E1	-1,292499993E-2	2,575374842E-1	-6,764999777E-2
3,781877539E1	-2,161500007E-1	-8,524999954E-3	-6,448750198E-2
3,783893754E1	-7,136250287E-2	-7,658749819E-2	2,598750032E-2
3,785909971E1	-8,662499487E-3	-3,521375060E-1	1,196250021E-1
3,787926179E1	4,675000161E-2	-4,703874886E-1	1,568875015E-1
3,789942394E1	1,967625022E-1	-1,064250022E-1	-5,499999970E-4
3,791958613E1	2,010249943E-1	3,682250082E-1	-2,506625056E-1
3,793974829E1	-3,409999982E-2	4,065875113E-1	-3,443000019E-1
3,795991021E1	-1,905750036E-1	1,681624949E-1	-2,730749846E-1
3,798007235E1	-1,607374996E-1	-7,342500240E-2	-1,431374997E-1
3,800023451E1	6,379999965E-2	-1,201749966E-1	-8,566249907E-2
3,802039666E1	8,291249722E-2	-3,596999943E-1	-1,229249984E-1
3,804055875E1	8,401250094E-2	-4,533374906E-1	-2,165624946E-1
3,806072090E1	2,946625054E-1	4,262499977E-3	-3,209249973E-1
3,808088284E1	2,542375028E-1	2,512125075E-1	-3,155624866E-1
3,810104498E1	-6,503749639E-2	-4,564999789E-2	-1,271875054E-1
3,812120714E1	-2,331999987E-1	-3,309625089E-1	1,867250055E-1
3,814136928E1	-1,245749965E-1	-2,171124965E-1	2,228875011E-1
3,816153137E1	3,189999983E-2	2,118874937E-1	3,671250120E-2
3,818169350E1	9,569999576E-2	5,779125094E-1	-1,271875054E-1
3,820185564E1	-1,225124970E-1	1,991000026E-1	-1,410750002E-1
3,822201778E1	-2,916375101E-1	-5,629249811E-1	-1,869999990E-2
3,824217971E1	4,784999788E-2	-6,491374969E-1	1,685750037E-1
3,826234184E1	3,042874932E-1	-2,287999988E-1	1,739374995E-1
3,828250400E1	9,253749996E-2	8,524999768E-2	4,619999975E-2
3,830266616E1	-1,927749962E-1	4,152499884E-2	-7,191249728E-2
3,832282824E1	-9,693749994E-2	5,115000159E-2	-4,523750022E-2
3,834299019E1	8,923749626E-2	1,553750038E-1	-2,749999985E-3
3,836315233E1	1,893374920E-1	2,628999949E-1	3,244999796E-2
3,838331448E1	4,248749837E-2	1,160499975E-1	1,068374962E-1
3,840347665E1	-1,182499975E-1	-1,106875017E-1	1,909874976E-1
3,842363875E1	-1,072499994E-2	-1,594999991E-2	1,920875013E-1
3,844380097E1	8,181250095E-2	3,203750029E-2	1,260875016E-1
3,846396316E1	-2,131249942E-2	-6,173750013E-2	7,713750005E-2
3,848412524E1	-1,607374996E-1	-1,403875053E-1	1,472624987E-1
3,850428740E1	-1,618375033E-1	-5,224999972E-3	1,153625026E-1
3,852444955E1	-1,292499993E-2	2,660624981E-1	1,005124971E-1
3,854461170E1	3,506249934E-2	2,617999911E-1	4,303750023E-2
3,856477360E1	-7,026249915E-2	-6,916250288E-2	-2,749999985E-3
3,858493575E1	4,784999788E-2	-4,895000160E-2	8,937500417E-3
3,860509782E1	1,627999991E-1	2,437874973E-1	2,062499896E-2
3,862525997E1	-1,288374960E-1	2,586374879E-1	3,244999796E-2
3,864542212E1	-3,587374985E-1	1,160499975E-1	4,729999974E-2
3,866558395E1	-1,991000026E-1	2,884750068E-1	-4,812499974E-3
3,868574611E1	9,679999948E-2	5,352874994E-1	-1,006499976E-1
3,870590836E1	3,286249936E-2	2,853125036E-1	-2,059749961E-1
3,872607040E1	-8,841250092E-2	-1,489125043E-1	-8,359999955E-2
3,874623255E1	-2,034999989E-2	-3,150124848E-1	3,244999796E-2
3,876639449E1	3,396249935E-2	-2,149125040E-1	-3,781250119E-2
3,878655664E1	2,337500080E-2	7,672499865E-2	-1,516624987E-1
3,880671880E1	-1,533125043E-1	1,468500048E-1	-2,304500043E-1
3,882688096E1	-2,215124965E-1	5,115000159E-2	-2,293500006E-1
3,884704311E1	-3,093750030E-2	7,136250287E-2	-1,176999956E-1
3,886720528E1	1,801249944E-2	7,562499959E-3	-9,322500229E-2
3,888736735E1	-7,672499865E-2	-8,084999770E-2	-1,507000029E-1
3,890752950E1	2,337500080E-2	9,157499671E-2	-1,996500045E-1
3,892769168E1	2,543750033E-2	1,596374959E-1	-2,495625019E-1
3,894785359E1	-5,761250108E-2	5,747500062E-2	-1,889249980E-1
3,896801575E1	-1,544124931E-1	-1,116499975E-1	-3,684999794E-2
3,898817791E1	-1,075249985E-1	-1,967625022E-1	-3,258749843E-2
3,900833975E1	4,564999789E-2	-1,574375033E-1	-1,709125042E-1
3,902850188E1	2,041874975E-1	-5,527500063E-2	-3,113000095E-1
3,904866428E1	2,138125002E-1	-9,886249900E-2	-3,240875006E-1
3,906882621E1	2,234375030E-1	-3,079999983E-2	-2,538250089E-1
3,908898828E1	2,010249943E-1	9,790000319E-2	-1,336500049E-1
3,910915041E1	-3,739999980E-2	-4,675000161E-2	-4,853750020E-2
3,912931255E1	-7,782500237E-2	-7,864999771E-2	-5,706249923E-2
3,914947447E1	2,276999950E-1	1,937374920E-1	-1,390125006E-1
3,916963663E1	3,191374838E-1	2,384250015E-1	-1,761374921E-1
3,918979870E1	1,212750003E-1	-6,696250290E-2	-9,006249905E-2
3,920996086E1	-8,208750188E-2	-3,660250008E-1	1,047749966E-1
3,923012301E1	-5,967500061E-2	-2,532750070E-1	1,685750037E-1
3,925028518E1	-1,924999990E-2	1,021625027E-1	8,456250280E-2
3,927044734E1	-1,937374920E-1	2,043250054E-1	-1,134374961E-1
3,929060927E1	-2,215124965E-1	1,766874939E-1	-1,751749963E-1
3,931077142E1	4,991250113E-2	1,671999991E-1	-6,875000149E-2
3,933093350E1	6,806249917E-2	-1,585374922E-1	4,674999975E-3
3,935109565E1	4,564999789E-2	-2,052875012E-1	2,172499895E-2
3,937125780E1	6,806249917E-2	7,136250287E-2	-8,470000327E-2
3,939141995E1	-3,299999982E-3	2,628999949E-1	-2,580874860E-1
3,941158184E1	-2,983750030E-2	2,310000062E-1	-2,751374841E-1
3,943174401E1	-6,613750011E-2	-1,021625027E-1	-1,251250058E-1
3,945190608E1	2,062499989E-3	-4,010874927E-1	1,636249945E-2
3,947206829E1	1,137124971E-1	-2,957625091E-1	2,172499895E-2
3,949223038E1	2,212374955E-1	-5,527500063E-2	-3,148749843E-2
3,951239232E1	1,307625026E-1	-2,287999988E-1	3,712499980E-3
3,953255468E1	9,886249900E-2	-3,458124995E-1	6,324999779E-2
3,955271662E1	2,117500007E-1	-4,468749836E-2	8,236250281E-2
3,957287868E1	2,041874975E-1	2,597374916E-1	3,451250121E-2
3,959304090E1	-1,799875051E-1	1,000999957E-1	4,083750024E-2
3,961320297E1	-3,693250120E-1	-7,864999771E-2	1,590874940E-1
3,963336511E1	-1,427250057E-1	-5,953750014E-2	2,356749922E-1
3,965352705E1	1,127500013E-1	-3,299999982E-2	3,451250121E-2
3,967368921E1	2,840749919E-1	1,394249946E-1	-2,272875011E-1
3,969385136E1	1,882375032E-1	2,810499966E-1	-2,336124927E-1
3,971401344E1	-1,310375035E-1	1,181124970E-1	-7,507500052E-2
3,973417558E1	-3,268375099E-1	-5,843750015E-2	8,456250280E-2
3,975433754E1	-2,256374955E-1	7,246249914E-2	1,856250018E-1
3,977449971E1	-2,235749960E-1	1,223749965E-1	1,175625026E-1
3,979466186E1	-2,448875010E-1	-1,911249943E-2	-8,896250278E-2
3,981482395E1	-4,056249931E-2	-2,337500080E-2	-2,400749922E-1
3,983498610E1	-2,351249941E-2	-2,681249976E-1	-1,559250057E-1
3,985514826E1	-7,782500237E-2	-7,321875095E-1	6,324999779E-2
3,987531017E1	2,138125002E-1	-6,001874804E-1	1,676124930E-1
3,989547234E1	3,265624940E-1	1,384624988E-1	-4,207500070E-2
3,991563449E1	9,143749624E-2	8,801375031E-1	-3,357749879E-1
3,993579664E1	-2,448875010E-1	8,982874751E-1	-3,911874890E-1
3,995595873E1	-5,513749719E-1	-7,342500240E-2	-1,368124932E-1
3,997612088E1	-9,803749621E-2	-5,757125020E-1	2,419999987E-1
3,999628278E1	4,650250077E-1	-4,320249856E-1	3,228499889E-1
4,001644492E1	4,107125103E-1	-2,915000021E-1	1,003750041E-2
