"Time (s)"	"Acceleration x (m/s^2)"	"Acceleration y (m/s^2)"	"Acceleration z (m/s^2)"
5,210500500E-2	3,315000057E0	8,104949951E0	2,536950111E0
7,226772100E-2	2,520000219E0	8,530950546E0	3,316050053E0
9,242996100E-2	2,404950142E0	8,787000656E0	3,756000280E0
1,125924180E-1	2,803050041E0	8,839950562E0	3,282000065E0
1,327548970E-1	3,271950245E0	8,887950897E0	3,186000109E0
1,529172480E-1	4,179000378E0	8,605050087E0	2,595000029E0
1,730797180E-1	4,348950386E0	8,518950462E0	2,475000143E0
1,932421780E-1	3,897000074E0	8,775000572E0	2,935050249E0
2,134046160E-1	3,966000080E0	8,926050186E0	3,076050043E0
2,335670740E-1	3,988050222E0	8,563950539E0	3,073950052E0
2,537292980E-1	3,897000074E0	8,380050659E0	3,595950127E0
2,738919760E-1	3,808050156E0	8,490000725E0	3,366000175E0
2,940542160E-1	3,784050226E0	8,524050713E0	2,767050028E0
3,142166720E-1	3,562050104E0	8,566950798E0	3,004050255E0
3,343791620E-1	3,556950092E0	8,256000519E0	3,792000294E0
3,545416480E-1	3,580950260E0	8,092950821E0	3,841950178E0
3,747040860E-1	3,801000118E0	7,834050179E0	3,997950077E0
3,948664720E-1	3,802950144E0	7,932000160E0	3,583950281E0
4,150290040E-1	4,012050152E0	8,044950485E0	2,908950090E0
4,351914720E-1	4,300950050E0	8,296050072E0	2,320050001E0
4,553538400E-1	4,681950092E0	8,212050438E0	2,830050230E0
4,755162900E-1	4,861950397E0	7,786050320E0	3,166950226E0
4,956788160E-1	4,669950008E0	7,413000584E0	4,221000195E0
5,158409410E-1	4,617000103E0	7,269000530E0	5,074950218E0
5,360034210E-1	4,468950272E0	7,432050228E0	5,286000252E0
5,561660940E-1	4,402050018E0	7,651950359E0	4,261050224E0
5,763283180E-1	4,653000355E0	7,770000458E0	4,575000286E0
5,964908360E-1	5,010000229E0	7,351050377E0	4,078950405E0
6,166532460E-1	4,744050026E0	7,846050262E0	4,269000053E0
6,368158030E-1	4,299000263E0	8,325000763E0	3,706050158E0
6,569781980E-1	4,419000149E0	8,112000465E0	2,985000134E0
6,771406580E-1	4,656000137E0	7,987050533E0	2,410950184E0
6,973031960E-1	4,399950027E0	8,131050110E0	2,668950081E0
7,174656100E-1	4,126950264E0	8,080950737E0	3,550050259E0
7,376278260E-1	4,420950413E0	8,062050819E0	4,314000130E0
7,577903050E-1	4,464000225E0	8,074049950E0	5,389050484E0
7,779527740E-1	4,275000095E0	8,112000465E0	5,322000027E0
7,981152510E-1	4,588950157E0	7,935000420E0	4,570050240E0
8,182777070E-1	4,356000423E0	7,863000393E0	3,720000267E0
8,384401500E-1	4,306050301E0	7,354950428E0	3,280050039E0
8,586025310E-1	4,905000210E0	7,513050556E0	3,046950102E0
8,787649810E-1	4,809000015E0	7,389000416E0	3,562050104E0
8,989275400E-1	4,749000072E0	7,695000172E0	3,691950083E0
9,190899230E-1	4,323000431E0	7,927950382E0	4,149000168E0
9,392523700E-1	4,084050179E0	8,179050446E0	4,482000351E0
9,594145980E-1	4,549950123E0	7,615950584E0	4,825950146E0
9,795770350E-1	4,813950062E0	7,630950451E0	4,731000423E0
9,997394920E-1	4,627050400E0	7,413000584E0	4,462050438E0
1,019901934E0	4,525950432E0	6,976950169E0	3,949950218E0
1,040064372E0	4,584000111E0	6,631950378E0	4,186950207E0
1,060226862E0	4,492950439E0	6,489000320E0	3,727050066E0
1,080389309E0	4,324950218E0	6,751950264E0	3,543000221E0
1,100551769E0	3,952050209E0	7,305000305E0	4,069950104E0
1,120714211E0	3,529950142E0	8,064000130E0	4,563000202E0
1,140876591E0	3,166950226E0	8,707950592E0	4,482000351E0
1,161039047E0	3,604950190E0	8,533050537E0	3,811050177E0
1,181201495E0	4,333050251E0	7,870050430E0	4,369050026E0
1,201363957E0	4,645950317E0	7,449000359E0	4,972050190E0
1,221526433E0	4,914000034E0	7,465050220E0	4,399950027E0
1,241688909E0	4,833000183E0	7,494000435E0	4,752000332E0
1,261851346E0	4,942950249E0	7,260000229E0	5,478000164E0
1,282013834E0	5,293050289E0	7,389000416E0	5,758050442E0
1,302176058E0	4,984050274E0	7,509000301E0	4,905000210E0
1,322338500E0	5,047950268E0	7,501050472E0	3,907050133E0
1,342500952E0	4,452000141E0	7,729050159E0	3,949950218E0
1,362663429E0	3,423000097E0	7,918050289E0	4,378950119E0
1,382825822E0	1,582050085E0	8,485050201E0	4,702050209E0
1,402988299E0	1,644000053E0	8,617050171E0	4,113000393E0
1,423150846E0	2,259000063E0	8,548050880E0	3,607950211E0
1,443313013E0	2,458050013E0	8,160000801E0	4,206000328E0
1,463475505E0	3,384000063E0	7,777050495E0	3,763050079E0
1,483638212E0	3,226050138E0	8,131050110E0	3,960000277E0
1,503800462E0	2,415000200E0	8,398950577E0	4,366950035E0
1,523962938E0	2,475000143E0	7,852950573E0	5,602050304E0
1,544125428E0	3,114000082E0	7,792950153E0	6,106950283E0
1,564287798E0	3,523050070E0	7,698000431E0	6,556950092E0
1,584450264E0	4,159950256E0	7,345950127E0	6,510000229E0
1,604612798E0	4,045050144E0	7,273950577E0	6,766050339E0
1,624775154E0	4,873950005E0	6,775950432E0	4,632000446E0
1,644937384E0	4,761000156E0	7,594950199E0	2,478000164E0
1,665099839E0	3,633000135E0	8,494950294E0	4,005000114E0
1,685262296E0	3,681000233E0	8,923950195E0	3,892950296E0
1,705424986E0	3,255000114E0	9,181950569E0	4,204050064E0
1,725587222E0	3,043950081E0	8,962050438E0	4,747050285E0
1,745749688E0	3,787050247E0	7,759950161E0	3,700950146E0
1,765912060E0	5,071950436E0	7,219050407E0	1,084050059E0
1,786074610E0	4,480950356E0	7,410000324E0	1,254000068E0
1,806236986E0	3,933000088E0	7,378950119E0	2,137950182E0
1,826399423E0	3,564000130E0	7,678950310E0	3,301050186E0
1,846561881E0	3,028050184E0	8,302950859E0	3,687000275E0
1,866724303E0	2,944050074E0	8,362950325E0	3,595950127E0
1,886886757E0	3,492000103E0	8,326950073E0	4,339950085E0
1,907048968E0	3,981000185E0	8,281949997E0	4,470000267E0
1,927211418E0	4,368000031E0	8,497050285E0	2,784000158E0
1,947373879E0	4,261050224E0	9,131999969E0	3,040500283E-1
1,967536276E0	3,846000195E0	9,175050735E0	-8,020500541E-1
1,987698721E0	3,765000105E0	9,172950745E0	6,405000389E-2
2,007861194E0	2,998950243E0	9,529050827E0	1,371000051E0
2,028023640E0	3,346050262E0	9,472050667E0	2,818050146E0
2,048186110E0	4,201050282E0	8,809050560E0	3,712950230E0
2,068348587E0	5,494050026E0	7,719000340E0	3,150000095E0
2,088510808E0	6,178950310E0	7,087050438E0	1,537050128E0
2,108673293E0	5,776050091E0	7,092000484E0	1,245000005E0
2,128835783E0	4,711050034E0	7,795950413E0	1,620000124E0
2,148998254E0	3,685950279E0	8,598000526E0	2,029950142E0
2,169160636E0	3,114000082E0	9,151050568E0	2,652000189E0
2,189323194E0	3,568950176E0	9,273000717E0	3,112050056E0
2,209485664E0	3,067950249E0	9,393000603E0	3,109950066E0
2,229648124E0	3,882000208E0	8,485050201E0	3,895050287E0
2,249810577E0	4,170000076E0	8,011050224E0	4,000050068E0
2,269972965E0	4,351950169E0	7,944000244E0	3,385050058E0
2,290135427E0	4,117050171E0	8,389950752E0	2,751000166E0
2,310297898E0	3,574050188E0	8,761050224E0	2,602050066E0
2,330460177E0	3,637950182E0	8,956950188E0	2,595000029E0
2,350622851E0	3,520950079E0	9,046050072E0	2,502000093E0
2,370785061E0	3,909000158E0	8,539950371E0	2,575950146E0
2,390947443E0	4,299000263E0	8,173950195E0	2,320050001E0
2,411109990E0	4,288949966E0	8,110050201E0	2,205000162E0
2,431272369E0	3,904050112E0	8,452050209E0	2,466000080E0
2,451434841E0	3,756000280E0	8,602950096E0	2,752950191E0
2,471597292E0	3,568950176E0	8,979000092E0	2,557050228E0
2,491759768E0	3,784050226E0	9,097949982E0	2,518050194E0
2,511922011E0	4,060050011E0	8,974050522E0	2,536950111E0
2,532084477E0	4,324950218E0	8,641050339E0	2,739000082E0
2,552246920E0	4,444950104E0	8,404050827E0	3,000000238E0
2,572409372E0	4,167000294E0	8,253000259E0	3,258000135E0
2,592571845E0	3,784050226E0	8,670000076E0	3,193050146E0
2,612734223E0	3,169050217E0	9,180000305E0	2,904000044E0
2,632896684E0	3,138000250E0	8,646000862E0	2,925000191E0
2,653059131E0	3,370050192E0	8,050050735E0	2,848950148E0
2,673221601E0	3,667050123E0	8,016000748E0	2,515950203E0
2,693384062E0	3,685950279E0	8,251049995E0	2,623950243E0
2,713546342E0	3,624000072E0	8,397000313E0	2,932950258E0
2,733708811E0	3,580950260E0	8,563950539E0	2,794050217E0
2,753871260E0	3,412950277E0	8,824950218E0	2,394000053E0
2,774033707E0	3,031950235E0	9,046050072E0	2,061000109E0
2,794196158E0	2,997000217E0	8,863950729E0	2,161950111E0
2,814358601E0	3,436950207E0	8,563950539E0	2,314950228E0
2,834521003E0	4,030950069E0	8,374950409E0	2,905950069E0
2,854683433E0	4,359000206E0	8,164950371E0	3,439950228E0
2,874845909E0	4,680000305E0	8,047050476E0	3,736950159E0
2,895008385E0	4,476000309E0	8,293950081E0	3,724950075E0
2,915170818E0	3,934950113E0	8,137949944E0	3,499950171E0
2,935333260E0	3,766950130E0	8,268000603E0	2,916000128E0
2,955495500E0	3,511050224E0	8,690999985E0	2,620950222E0
2,975657991E0	3,655050278E0	8,641050339E0	2,169000149E0
2,995820457E0	3,922950268E0	8,485050201E0	2,157000065E0
3,015982913E0	4,066950321E0	8,575950623E0	2,287950039E0
3,036145634E0	3,957000256E0	8,892000198E0	3,031050205E0
3,056307851E0	4,155000210E0	8,803950310E0	3,471000195E0
3,076470222E0	4,318050385E0	8,461050034E0	3,028050184E0
3,096632676E0	3,946950197E0	8,404050827E0	3,532950163E0
3,116795154E0	3,733950138E0	8,539950371E0	4,144050121E0
3,136957611E0	3,495000124E0	8,701050758E0	4,060050011E0
3,157119820E0	3,360000134E0	9,085950851E0	4,066950321E0
3,177282300E0	3,088050127E0	9,610950470E0	4,153950214E0
3,197444995E0	3,210000038E0	9,795000076E0	3,634050131E0
3,217607226E0	2,178000212E0	1,022400093E1	2,194950104E0
3,237769698E0	1,336950064E0	1,124805069E1	1,153950095E0
3,257932129E0	1,603050113E0	1,146600056E1	3,490500152E-1
3,278094600E0	4,368000031E0	9,031050682E0	1,612950087E0
3,298256973E0	7,416000366E0	5,314950466E0	3,427950144E0
3,318419448E0	8,889000893E0	3,177000046E0	4,885950089E0
3,338581987E0	7,515000343E0	3,738000154E0	5,788950443E0
3,358744355E0	4,579050064E0	6,096000195E0	6,874050140E0
3,378906817E0	2,182049990E0	8,169000626E0	6,045000076E0
3,399069274E0	2,017050028E0	8,694000244E0	3,639000177E0
3,419231749E0	2,500950098E0	8,674950600E0	2,344050169E0
3,439394221E0	2,568000078E0	8,650950432E0	2,164050102E0
3,459556463E0	2,743050098E0	8,385000229E0	2,499000072E0
3,479718934E0	3,669000149E0	8,041950226E0	2,308050156E0
3,499881381E0	4,323000431E0	7,719000340E0	2,137950182E0
3,520043852E0	4,227000237E0	7,911000252E0	2,037000179E0
3,540206309E0	3,420000076E0	8,605050087E0	3,352050066E0
3,560368699E0	2,860050201E0	8,995050430E0	3,924000263E0
3,580531170E0	2,869950056E0	9,334950447E0	3,751050234E0
3,600693627E0	3,289050102E0	9,216000557E0	3,033000231E0
3,620856081E0	3,331950188E0	9,034049988E0	2,125950098E0
3,641018533E0	3,553950071E0	9,000000000E0	2,389050007E0
3,661180742E0	3,388950109E0	8,812950134E0	2,134950161E0
3,681343216E0	2,913000107E0	8,539950371E0	2,213999987E0
3,701505890E0	2,970000029E0	7,963050365E0	2,679000139E0
3,721668346E0	3,268950224E0	7,801050186E0	3,375000238E0
3,741830842E0	3,853950262E0	7,687950134E0	3,208050251E0
3,761993303E0	3,547050238E0	8,425950050E0	3,265050173E0
3,782155776E0	2,958000183E0	9,454950333E0	4,177950382E0
3,802318231E0	2,625000238E0	9,769050598E0	5,518050194E0
3,822480447E0	3,370050192E0	8,920950890E0	4,987050056E0
3,842643145E0	4,363950253E0	7,846050262E0	3,556950092E0
3,862805366E0	4,711050034E0	7,863000393E0	2,455950022E0
3,882967836E0	4,495050430E0	8,215050697E0	2,262000084E0
3,903130289E0	4,054950237E0	8,457000732E0	3,025950193E0
3,923292774E0	3,745950222E0	8,263050079E0	3,739050150E0
3,943455158E0	4,150950432E0	7,948950291E0	3,375000238E0
3,963617377E0	4,215000153E0	7,900950432E0	2,731050014E0
3,983779824E0	3,832050085E0	7,779000282E0	2,395950079E0
4,003942536E0	3,805950165E0	8,047050476E0	3,069000244E0
4,024104997E0	3,721950293E0	8,449950218E0	3,253050089E0
4,044267230E0	2,926950216E0	9,072000504E0	4,198950291E0
4,064429701E0	3,007950068E0	9,100950241E0	4,495950222E0
4,084592158E0	3,496950150E0	9,091050148E0	3,423000097E0
4,104754605E0	3,982950211E0	8,662950516E0	3,160050154E0
4,124917011E0	4,773000240E0	8,149950027E0	3,043050051E0
4,145079509E0	4,716000080E0	7,975050449E0	2,776950121E0
4,165241886E0	3,952050209E0	7,990050316E0	3,904950142E0
4,185404331E0	3,672000170E0	8,348999977E0	4,270950317E0
4,205566778E0	3,094950199E0	8,890050888E0	4,489050388E0
4,225729217E0	3,444000244E0	8,754000664E0	3,771000147E0
4,245891707E0	4,251000404E0	8,137949944E0	2,551950216E0
4,266054203E0	4,333050251E0	7,647000313E0	1,855050087E0
4,286216674E0	4,294050217E0	7,264050484E0	2,169000149E0
4,306379141E0	3,772050142E0	7,810050488E0	2,911050081E0
4,326541622E0	3,187950134E0	8,754000664E0	3,829950094E0
4,346703857E0	3,106950045E0	9,052950859E0	4,042950153E0
4,366866312E0	3,363000154E0	9,039000511E0	3,366000175E0
4,387028798E0	3,849000216E0	8,967000008E0	2,820000172E0
4,407191247E0	3,886950254E0	8,851950645E0	3,093000174E0
4,427353956E0	4,285050392E0	8,452050209E0	3,571950197E0
4,447516403E0	4,189050198E0	8,167050362E0	3,406950235E0
4,467678639E0	4,057050228E0	7,861050606E0	3,346950054E0
4,487841071E0	4,246050358E0	7,918050289E0	3,414000273E0
4,508003533E0	4,038000107E0	8,253000259E0	3,816000223E0
4,528165985E0	3,925950289E0	8,326950073E0	4,240050316E0
4,548328466E0	3,781950235E0	8,476050377E0	3,628950119E0
4,568490932E0	3,870000124E0	8,196000099E0	3,325050116E0
4,588653299E0	3,556950092E0	8,020950317E0	3,112050056E0
4,608815749E0	3,757950068E0	7,903950214E0	2,815050125E0
4,628978298E0	3,267000198E0	8,392050743E0	3,114000082E0
4,649140692E0	3,070950031E0	8,694000244E0	3,781950235E0
4,669303164E0	3,577950239E0	8,638950348E0	4,012050152E0
4,689465616E0	4,210050106E0	8,301000595E0	3,304050207E0
4,709628164E0	4,752000332E0	8,244000435E0	2,442000151E0
4,729790549E0	4,810950279E0	8,290950775E0	2,502000093E0
4,749953096E0	4,114950180E0	8,614950180E0	2,818050146E0
4,770115472E0	3,247950077E0	9,010050774E0	3,217050076E0
4,790277935E0	3,022950172E0	8,845050812E0	3,781950235E0
4,810440399E0	2,878950119E0	8,800950050E0	4,575000286E0
4,830602880E0	3,358050108E0	8,263050079E0	3,864000082E0
4,850765122E0	3,778950214E0	7,887000561E0	3,133950233E0
4,870927554E0	3,844050169E0	7,690950394E0	2,863050222E0
4,891090231E0	3,982950211E0	7,635000229E0	2,782050133E0
4,911252457E0	3,571050167E0	7,972950459E0	2,949000120E0
4,931414914E0	3,171000242E0	8,353950500E0	3,547950268E0
4,951577363E0	2,797950029E0	8,655000687E0	4,093950272E0
4,971739825E0	2,509950161E0	9,550950050E0	4,057950020E0
4,991902286E0	2,908050060E0	9,229950905E0	3,687000275E0
5,012064743E0	3,789000273E0	8,458950043E0	2,959050179E0
5,032227219E0	4,480950356E0	7,840950489E0	2,764950037E0
5,052389680E0	4,107000351E0	8,095050812E0	3,363000154E0
5,072552362E0	3,571050167E0	8,657999992E0	4,798050404E0
5,092714584E0	3,679050207E0	8,935950279E0	4,819050312E0
5,112877002E0	3,583050251E0	9,079050064E0	4,261050224E0
5,133039520E0	4,207950115E0	8,280000687E0	2,976000071E0
5,153201971E0	4,777950287E0	7,819950581E0	2,161950111E0
5,173364341E0	4,438050270E0	7,971000195E0	2,587950230E0
5,193526812E0	3,520950079E0	8,584050179E0	3,390000105E0
5,213689235E0	2,968050241E0	8,739000320E0	4,431000233E0
5,233851699E0	3,265050173E0	8,208000183E0	4,587000370E0
5,254014144E0	3,435000181E0	8,124000549E0	3,610050201E0
5,274176586E0	4,118999958E0	7,743000507E0	3,541050196E0
5,294339053E0	4,263000011E0	7,603950500E0	2,797950029E0
5,314501486E0	3,660000086E0	8,041950226E0	3,382950068E0
5,334663992E0	3,406050205E0	8,361000061E0	4,096050262E0
5,354826452E0	3,319950104E0	8,437950134E0	4,315950394E0
5,374988680E0	3,214050055E0	8,536050797E0	3,907050133E0
5,395151159E0	3,322050095E0	8,775000572E0	3,912000179E0
5,415313606E0	3,328950167E0	9,039000511E0	3,778050184E0
5,435476078E0	4,093050003E0	8,497050285E0	3,901950121E0
5,455638525E0	4,476000309E0	8,341950417E0	3,715050220E0
5,475801209E0	4,524000168E0	8,143050194E0	4,033950329E0
5,495963670E0	4,189050198E0	8,053950310E0	3,832950115E0
5,516125875E0	3,787050247E0	8,050050735E0	3,711000204E0
5,536288558E0	3,171000242E0	8,469000816E0	3,790050268E0
5,556451036E0	2,944050074E0	9,169950485E0	3,747000217E0
5,576613265E0	2,949000120E0	8,964000702E0	3,301050186E0
5,596775726E0	3,553950071E0	8,028000832E0	2,929950237E0
5,616938433E0	3,352950096E0	7,765050411E0	3,292050123E0
5,637100649E0	3,472950220E0	7,321950436E0	3,672000170E0
5,657263132E0	3,406050205E0	7,690950394E0	3,771000147E0
5,677425607E0	3,280950069E0	8,071050644E0	4,063050270E0
5,697588303E0	3,178050041E0	8,329950333E0	3,984000206E0
5,717750534E0	3,076050043E0	8,791950226E0	4,279950142E0
5,737913004E0	3,175950050E0	9,076950073E0	3,517050266E0
5,758075485E0	3,655050278E0	8,233950615E0	2,722050190E0
5,778237933E0	4,299000263E0	7,257000446E0	3,421050072E0
5,798400399E0	4,030950069E0	7,567950249E0	3,838050127E0
5,818562862E0	3,612000227E0	7,996950150E0	4,515000343E0
5,838725336E0	3,649950266E0	8,239050865E0	4,618050098E0
5,858887783E0	3,655050278E0	8,779950142E0	3,931050301E0
5,879050240E0	3,612000227E0	8,719950676E0	3,532950163E0
5,899212697E0	3,933000088E0	8,074049950E0	3,220050097E0
5,919375155E0	3,940050125E0	7,819950581E0	3,835050106E0
5,939537645E0	3,316950083E0	8,434950829E0	4,213050365E0
5,959700093E0	2,724000216E0	8,847000122E0	4,558050156E0
5,979862563E0	4,024050236E0	8,959050179E0	3,871050119E0
6,000025021E0	4,819050312E0	8,239050865E0	3,025950193E0
6,020187476E0	4,572000027E0	7,900950432E0	2,937000036E0
6,040349895E0	4,045050144E0	7,932000160E0	3,510000229E0
6,060512612E0	3,850950241E0	7,855950356E0	3,652950287E0
6,080675144E0	3,528000116E0	8,241000175E0	3,070950031E0
6,100837298E0	2,833950043E0	8,533050537E0	2,734050035E0
6,120999769E0	2,839050055E0	8,635950089E0	3,598050117E0
6,141162454E0	3,592950106E0	8,430000305E0	4,192049980E0
6,161324911E0	4,375950336E0	7,807950497E0	4,419000149E0
6,181487362E0	4,810950279E0	7,549050331E0	4,711050034E0
6,201649899E0	4,588950157E0	7,887000561E0	3,817950249E0
6,221812360E0	3,898950100E0	8,500050545E0	2,169000149E0
6,241974827E0	2,755050182E0	9,034049988E0	3,553050280E0
6,262137278E0	2,601000071E0	9,091050148E0	4,624950409E0
6,282299742E0	2,829000235E0	8,872950554E0	4,540950298E0
6,302462221E0	3,078000069E0	7,659000397E0	5,016000271E0
6,322624673E0	4,038000107E0	7,341000557E0	4,941000462E0
6,342787144E0	4,339950085E0	7,543950558E0	3,615000248E0
6,362949581E0	3,655050278E0	8,031000137E0	3,766050100E0
6,383112038E0	2,937000036E0	8,480999947E0	4,774050236E0
6,403274443E0	2,922000170E0	8,296050072E0	4,767000198E0
6,423436981E0	2,599050045E0	8,430000305E0	4,660950184E0
6,443599337E0	3,183000088E0	8,124000549E0	4,779000282E0
6,463761896E0	3,532950163E0	7,719000340E0	5,035050392E0
6,483924301E0	3,406050205E0	7,803000450E0	4,972050190E0
6,504086824E0	2,913000107E0	7,960950375E0	4,804950237E0
6,524249539E0	2,925000191E0	8,181000710E0	2,992050171E0
6,544411784E0	2,520000219E0	8,521050453E0	3,505050182E0
6,564574255E0	2,700000048E0	8,277000427E0	4,021950245E0
6,584736656E0	3,267000198E0	7,927950382E0	3,538050175E0
6,604899204E0	3,052050114E0	8,041950226E0	3,615000248E0
6,625061680E0	2,958000183E0	8,181000710E0	4,324050426E0
6,645224128E0	3,286050081E0	7,828950405E0	4,101000309E0
6,665386803E0	3,055950165E0	7,861050606E0	3,984000206E0
6,685549015E0	2,728050232E0	8,263050079E0	4,342950344E0
6,705711481E0	3,025050163E0	8,596050262E0	4,273050308E0
6,725873928E0	3,307950258E0	8,971050262E0	4,093950272E0
6,746036390E0	4,015950203E0	8,341950417E0	3,925950289E0
6,766199097E0	4,419000149E0	7,924950600E0	4,261050224E0
6,786361529E0	3,781950235E0	8,044950485E0	5,083050251E0
6,806523993E0	3,202050209E0	8,272050858E0	5,118000031E0
6,826686237E0	3,133050203E0	8,433000565E0	4,620000362E0
6,846848925E0	3,487050056E0	8,191050529E0	4,111050129E0
6,867011165E0	3,970950127E0	7,614000320E0	3,931050301E0
6,887173618E0	3,910950184E0	7,530000210E0	4,486050129E0
6,907336314E0	3,976050138E0	7,948950291E0	4,867050171E0
6,927498532E0	3,387000084E0	8,710050583E0	4,663950443E0
6,947661224E0	3,435000181E0	8,239050865E0	4,078950405E0
6,967823695E0	3,145050049E0	8,356050491E0	4,575000286E0
6,987986154E0	2,596950054E0	8,952000618E0	4,603950024E0
7,008148621E0	2,403000116E0	8,730000496E0	4,720950127E0
7,028311088E0	3,154950142E0	7,429950237E0	4,405050278E0
7,048473550E0	3,681000233E0	6,891000271E0	3,316050053E0
7,068636008E0	3,468000174E0	6,999000549E0	3,162000179E0
7,088798467E0	2,736000061E0	8,031000137E0	3,615000248E0
7,108960919E0	1,906950116E0	9,235050201E0	4,345050335E0
7,129123438E0	1,786950111E0	9,570000648E0	4,644000053E0
7,149285804E0	2,986950159E0	8,338950157E0	4,776000023E0
7,169448326E0	3,744000196E0	7,695000172E0	3,715050220E0
7,189610807E0	3,829950094E0	7,470000267E0	3,607950211E0
7,209773260E0	3,277050257E0	8,119050026E0	4,342950344E0
7,229935723E0	2,926950216E0	8,812950134E0	4,834050179E0
7,250098170E0	2,800050020E0	8,878050804E0	4,921950340E0
7,270260846E0	3,384000063E0	8,191050529E0	5,140050411E0
7,290423073E0	3,744000196E0	7,942050457E0	4,627950191E0
7,310585774E0	3,643050194E0	7,666950226E0	4,531949997E0
7,330748005E0	3,529950142E0	7,627950191E0	4,417050362E0
7,350910448E0	3,091950178E0	8,086050034E0	4,471950054E0
7,371073154E0	2,743050098E0	8,761050224E0	3,936000109E0
7,391235413E0	2,392950058E0	8,884950638E0	4,114950180E0
7,411397865E0	2,368950129E0	8,690999985E0	4,519950390E0
7,431560324E0	2,818950176E0	8,410950661E0	4,714050293E0
7,451722776E0	3,352950096E0	7,861050606E0	4,800000191E0
7,471885232E0	3,966000080E0	7,351050377E0	4,482000351E0
7,492047704E0	3,993000269E0	7,209000111E0	4,197000027E0
7,512210396E0	3,459000111E0	7,645050526E0	3,928950071E0
7,532372863E0	2,563050032E0	8,428050041E0	4,438950062E0
7,552535348E0	2,419950008E0	8,461050034E0	4,474050045E0
7,572697891E0	2,628000021E0	8,160000801E0	4,279950142E0
7,592860286E0	2,797950029E0	8,341950417E0	3,933000088E0
7,613022747E0	2,950950146E0	7,723950386E0	4,066950321E0
7,633185204E0	3,205050230E0	7,674000263E0	4,270950317E0
7,653347682E0	3,151950121E0	7,657050133E0	4,288050175E0
7,673510134E0	3,171000242E0	7,698000431E0	4,306950092E0
7,693672601E0	3,147000074E0	7,966050148E0	4,708950043E0
7,713835058E0	3,064050198E0	8,145000458E0	4,531949997E0
7,733997603E0	3,387000084E0	8,101950645E0	4,342950344E0
7,754160040E0	3,310050249E0	8,374950409E0	4,084050179E0
7,774322511E0	3,043950081E0	8,530950546E0	4,435950279E0
7,794485001E0	3,247950077E0	8,220000267E0	4,303950310E0
7,814647442E0	3,529950142E0	8,080950737E0	4,881000042E0
7,834809900E0	3,532950163E0	8,089950562E0	5,085000038E0
7,854972376E0	3,406050205E0	8,272050858E0	4,846050262E0
7,875134824E0	3,202050209E0	8,569050789E0	4,539000034E0
7,895297286E0	3,255000114E0	8,461050034E0	4,303950310E0
7,915459772E0	3,841950178E0	7,803000450E0	3,415950060E0
7,935622237E0	3,700050116E0	7,473000526E0	3,277050257E0
7,955784935E0	3,459000111E0	7,365000248E0	3,952050209E0
7,975947396E0	3,073050261E0	7,633050442E0	4,618050098E0
7,996109851E0	2,962950230E0	7,923000336E0	4,506000042E0
8,016272312E0	2,890950203E0	8,248050690E0	3,816000223E0
8,036434842E0	3,018000126E0	8,224050522E0	3,544950247E0
8,056597304E0	3,210000038E0	8,052000046E0	3,838050127E0
8,076759703E0	3,303000212E0	7,918050289E0	3,985950232E0
8,096922476E0	3,337050200E0	7,942050457E0	4,339950085E0
8,117084606E0	2,980050087E0	8,341950417E0	4,690050125E0
8,137247075E0	2,542050123E0	8,713050842E0	5,557050228E0
8,157409834E0	2,508000135E0	8,923950195E0	5,407950401E0
8,177572068E0	3,222000122E0	8,335050583E0	4,927050114E0
8,197734746E0	4,356000423E0	7,815000534E0	4,122000217E0
8,217896976E0	4,591050148E0	7,426950455E0	4,093950272E0
8,238059457E0	3,952050209E0	7,846050262E0	4,776000023E0
8,258221905E0	2,874000072E0	8,590950012E0	5,656950474E0
8,278384627E0	2,266050100E0	8,947950363E0	5,595000267E0
8,298547074E0	2,403000116E0	8,836950302E0	4,575000286E0
8,318709300E0	2,905950069E0	8,293950081E0	3,747000217E0
8,338871979E0	3,577950239E0	7,746000290E0	3,720000267E0
8,359034440E0	3,769950151E0	7,504050255E0	4,066950321E0
8,379196902E0	3,150000095E0	7,750050545E0	4,690050125E0
8,399359361E0	2,596950054E0	8,044950485E0	5,080050468E0
8,419521805E0	2,521950006E0	8,100000381E0	4,762050152E0
8,439684276E0	2,815050125E0	7,935000420E0	4,534049988E0
8,459846824E0	3,358050108E0	7,458000183E0	4,371000290E0
8,480009290E0	3,625950098E0	7,132950306E0	4,378950119E0
8,500171718E0	3,592950106E0	7,297950268E0	4,221000195E0
8,520334180E0	3,247950077E0	7,600050449E0	4,302000046E0
8,540496641E0	2,815050125E0	7,936950207E0	4,519950390E0
8,560659343E0	2,107950211E0	8,513999939E0	5,028000355E0
8,580821838E0	2,374050140E0	8,458950043E0	5,722050190E0
8,600984078E0	3,064050198E0	8,164950371E0	5,572950363E0
8,621146818E0	3,976050138E0	7,561050415E0	5,080050468E0
8,641309225E0	4,510050297E0	7,300050259E0	5,338950157E0
8,661471774E0	4,084050179E0	7,786050320E0	5,209050179E0
8,681634447E0	3,423000097E0	8,361000061E0	4,960050106E0
8,701796692E0	3,280950069E0	8,521050453E0	4,756950378E0
8,721959154E0	3,612000227E0	8,497050285E0	4,834050179E0
8,742121808E0	3,978000164E0	8,277000427E0	4,441050053E0
8,762284284E0	4,190999985E0	7,674000263E0	4,443000317E0
8,782446762E0	3,736050129E0	7,477050304E0	4,933950424E0
8,802609222E0	3,111000061E0	7,642950535E0	4,800000191E0
8,822771669E0	2,761950016E0	7,825050354E0	4,423950195E0
8,842934126E0	2,673000097E0	7,738050461E0	4,407000065E0
8,863096635E0	2,989050150E0	7,819950581E0	4,824000359E0
8,883259001E0	3,652950287E0	7,827000141E0	4,774050236E0
8,903421457E0	3,820050240E0	7,911000252E0	3,993000269E0
8,923583996E0	3,904050112E0	8,204999924E0	3,747000217E0
8,943746400E0	3,337050200E0	8,623950005E0	3,724950075E0
8,963908885E0	2,572950125E0	8,758049965E0	4,069950104E0
8,984071407E0	2,587050200E0	8,409000397E0	4,936950207E0
9,004233892E0	3,091950178E0	8,409000397E0	5,628000259E0
9,024396573E0	4,072050095E0	7,915950298E0	5,430000305E0
9,044559058E0	4,930950165E0	6,999000549E0	4,399950027E0
9,064721312E0	5,131950378E0	6,778050423E0	3,811050177E0
9,084883981E0	3,858000278E0	7,446000576E0	3,478050232E0
9,105046445E0	3,085050106E0	8,256000519E0	4,185000420E0
9,125208902E0	2,299950123E0	9,072000504E0	4,321050167E0
9,145371419E0	1,888050079E0	8,574000359E0	3,835050106E0
9,165533799E0	2,809950113E0	7,671000481E0	4,600950241E0
9,185696260E0	3,403950214E0	7,717050552E0	4,534049988E0
9,205858791E0	3,643050194E0	7,650000572E0	4,393050194E0
9,226021286E0	3,945000172E0	7,318950176E0	5,176050186E0
9,246183758E0	3,844050169E0	7,615950584E0	4,431000233E0
9,266346476E0	3,328950167E0	8,361000061E0	3,735000134E0
9,286508948E0	3,217050076E0	9,027000427E0	4,054950237E0
9,306671412E0	3,625950098E0	9,103050232E0	3,640950203E0
9,326833902E0	3,873000145E0	9,082050323E0	3,474000216E0
9,346996445E0	4,237050056E0	8,434950829E0	3,852000237E0
9,367158877E0	4,234050274E0	8,119050026E0	4,351950169E0
9,387321424E0	3,823050261E0	7,996950150E0	4,363950253E0
9,407483901E0	3,511050224E0	7,582950592E0	4,030950069E0
9,427646342E0	3,034950256E0	7,309950352E0	4,647000313E0
9,447809029E0	3,037050247E0	7,360050201E0	4,065000057E0
9,467971478E0	2,656950235E0	7,846050262E0	3,505050182E0
9,488133954E0	2,604000092E0	8,121000290E0	3,325050116E0
9,508296405E0	2,860050201E0	7,990050316E0	3,859050274E0
9,528458938E0	3,307950258E0	8,308050156E0	4,149000168E0
9,548621381E0	3,031950235E0	9,010050774E0	4,105950356E0
9,568783819E0	3,046950102E0	8,428050041E0	4,869000435E0
9,588946251E0	3,238050222E0	7,753050327E0	4,932000160E0
9,609108924E0	3,637950182E0	7,875000477E0	4,909950256E0
9,629271377E0	3,765000105E0	8,148000717E0	4,242000103E0
9,649433924E0	3,981000185E0	7,723950386E0	4,345050335E0
9,669596387E0	4,297049999E0	7,702050209E0	5,200050354E0
9,689759068E0	3,790950298E0	8,584050179E0	5,101950169E0
9,709921515E0	3,126000166E0	9,145950317E0	5,016000271E0
9,730084049E0	3,507000208E0	9,058050156E0	4,759050369E0
9,750246510E0	3,976050138E0	8,761050224E0	3,579000235E0
9,770408957E0	4,174950123E0	8,392050743E0	3,651000261E0
9,790571649E0	4,002000332E0	8,311050415E0	3,979050159E0
9,810734121E0	4,072050095E0	8,263050079E0	3,877950191E0
9,830896600E0	3,684000254E0	8,143050194E0	3,909000158E0
9,851059058E0	3,448950052E0	7,879950523E0	4,234950066E0
9,871221590E0	3,660000086E0	8,008950233E0	4,019999981E0
9,891384044E0	3,340950251E0	8,236050606E0	3,415950060E0
9,911546508E0	3,565950155E0	7,492050171E0	3,706050158E0
9,931708974E0	4,198050022E0	7,240050316E0	4,069950104E0
9,951871667E0	3,850950241E0	7,753050327E0	3,184050083E0
9,972034219E0	3,424950123E0	7,767000198E0	3,222000122E0
9,992196695E0	3,229050159E0	8,044950485E0	4,233000278E0
1,001235915E1	2,623050213E0	8,931000710E0	4,603950024E0
1,003252184E1	2,532000065E0	9,157950401E0	4,819050312E0
1,005268430E1	3,195000172E0	8,418000221E0	4,852950096E0
1,007284682E1	3,928050280E0	7,987050533E0	4,075050354E0
1,009300927E1	4,009050369E0	8,155050278E0	3,399000168E0
1,011317172E1	3,868050098E0	8,368050575E0	3,643950224E0
1,013333419E1	3,720000267E0	8,679000854E0	4,051050186E0
1,015349688E1	3,553950071E0	8,551950455E0	4,303950310E0
1,017365942E1	3,724050283E0	8,197950363E0	4,375950336E0
1,019382191E1	3,817950249E0	8,280000687E0	4,089000225E0
1,021398458E1	4,015950203E0	8,050050735E0	3,418950081E0
1,023414702E1	3,604950190E0	7,944000244E0	3,682050228E0
1,025430951E1	3,162000179E0	7,792950153E0	3,984000206E0
1,027447206E1	2,158950090E0	8,171999931E0	4,157999992E0
1,029463456E1	1,972050071E0	8,176950455E0	4,479000092E0
1,031479728E1	2,379000187E0	7,911000252E0	4,111050129E0
1,033495973E1	2,857950211E0	7,827000141E0	3,916950226E0
1,035512224E1	3,553950071E0	7,633050442E0	3,793950081E0
1,037528467E1	3,640950203E0	7,600050449E0	3,888000250E0
1,039544736E1	3,432000160E0	7,837050438E0	4,144050121E0
1,041560980E1	2,992050171E0	8,536050797E0	4,579950333E0
1,043577234E1	2,688000202E0	8,962050438E0	4,728000164E0
1,045593479E1	3,223950148E0	8,719950676E0	4,441050053E0
1,047609748E1	3,613950253E0	8,263050079E0	4,321050167E0
1,049626003E1	3,628950119E0	7,996950150E0	4,411950111E0
1,051642250E1	3,562050104E0	7,858050346E0	4,591950417E0
1,053658518E1	3,784050226E0	7,779000282E0	4,054950237E0
1,055674766E1	3,727050066E0	7,602000237E0	3,835050106E0
1,057691015E1	3,444000244E0	7,834050179E0	3,856950283E0
1,059707293E1	2,809950113E0	8,800950050E0	4,423950195E0
1,061723516E1	2,644950151E0	9,304050446E0	4,435950279E0
1,063739785E1	3,616950274E0	8,488050461E0	3,928950071E0
1,065756029E1	3,976050138E0	7,470000267E0	3,471000195E0
1,067772282E1	3,799050093E0	7,156950474E0	3,988050222E0
1,069788526E1	3,517950058E0	7,594950199E0	4,494000435E0
1,071804791E1	3,304950237E0	8,112000465E0	4,446000099E0
1,073821046E1	3,198000193E0	8,289000511E0	3,865950108E0
1,075837295E1	2,962950230E0	8,872950554E0	4,077000141E0
1,077853564E1	2,985000134E0	9,271050453E0	3,723000288E0
1,079869819E1	3,229050159E0	8,916000366E0	3,604950190E0
1,081886066E1	3,325050116E0	7,959000587E0	4,003050327E0
1,083902315E1	3,673950195E0	7,366950512E0	4,534049988E0
1,085918585E1	3,973050117E0	7,390950203E0	4,438950062E0
1,087934832E1	3,456000090E0	7,803000450E0	3,913950205E0
1,089951088E1	2,914950132E0	8,245950699E0	4,060050011E0
1,091967330E1	2,649000168E0	9,091050148E0	4,065000057E0
1,093983595E1	2,484000206E0	9,204000473E0	3,402000189E0
1,095999849E1	2,649000168E0	7,623000145E0	3,385050058E0
1,098016094E1	3,031950235E0	7,039050102E0	4,269000053E0
1,100032363E1	3,171000242E0	7,843950272E0	4,672950268E0
1,102048607E1	3,439050198E0	8,323050499E0	4,438950062E0
1,104064860E1	3,589950085E0	8,718000412E0	4,771050453E0
1,106081131E1	3,454050064E0	9,211050034E0	4,776000023E0
1,108097378E1	3,079950094E0	9,108000755E0	4,620000362E0
1,110113631E1	3,198000193E0	8,758049965E0	4,189949989E0
1,112129901E1	3,685950279E0	8,268000603E0	3,628950119E0
1,114146147E1	4,126950264E0	7,906050205E0	3,366000175E0
1,116162422E1	3,969000101E0	8,160000801E0	4,210950375E0
1,118178670E1	3,528000116E0	8,662950516E0	4,768950462E0
1,120194926E1	3,054000139E0	8,992950439E0	4,612950325E0
1,122211176E1	2,842950106E0	8,268000603E0	3,823050261E0
1,124227445E1	2,724000216E0	7,509000301E0	3,114000082E0
1,126243692E1	2,920050144E0	7,164000511E0	2,881950140E0
1,128259946E1	2,866950035E0	7,594950199E0	2,880000114E0
1,130276215E1	2,601000071E0	8,347050667E0	3,451950073E0
1,132292459E1	2,296950102E0	8,950050354E0	4,276050091E0
1,134308711E1	2,106000185E0	9,156000137E0	4,582050323E0
1,136324950E1	1,950000048E0	9,397950172E0	3,960000277E0
1,138341206E1	2,416950226E0	9,067049980E0	3,114000082E0
1,140357453E1	3,400950193E0	8,335050583E0	3,190950155E0
1,142373730E1	4,258049965E0	8,008950233E0	4,087049961E0
1,144389975E1	4,462050438E0	8,140950203E0	5,041950226E0
1,146406243E1	4,456950188E0	8,076000214E0	5,338950157E0
1,148422490E1	4,084050179E0	7,834050179E0	4,527000427E0
1,150438742E1	3,339000225E0	8,437950134E0	3,919050217E0
1,152455012E1	2,748000145E0	8,836950302E0	3,555000067E0
1,154471257E1	2,913000107E0	8,557050705E0	2,772000074E0
1,156487510E1	3,223950148E0	8,311050415E0	2,311950207E0
1,158503755E1	3,049050093E0	8,626950264E0	2,466000080E0
1,160520023E1	2,829000235E0	9,016950607E0	3,202950239E0
1,162536279E1	2,925000191E0	8,847000122E0	4,057950020E0
1,164552525E1	3,363000154E0	8,480999947E0	3,664950132E0
1,166568797E1	3,550050259E0	8,380050659E0	3,415950060E0
1,168585045E1	3,504000187E0	8,380050659E0	2,796000242E0
1,170601299E1	3,202050209E0	8,650950432E0	2,956050158E0
1,172617549E1	3,049050093E0	8,964000702E0	3,415950060E0
1,174633817E1	3,142950058E0	8,919000626E0	3,478050232E0
1,176650070E1	3,372000217E0	8,452050209E0	3,865950108E0
1,178666318E1	3,114000082E0	8,466000557E0	3,687000275E0
1,180682592E1	2,748000145E0	8,667000771E0	3,490050077E0
1,182698838E1	2,592000008E0	8,646000862E0	3,601050138E0
1,184715106E1	2,712000132E0	8,935950279E0	3,318000078E0
1,186731352E1	2,869950056E0	9,085950851E0	3,244050264E0
1,188747599E1	3,231000185E0	8,916000366E0	3,294000149E0
1,190763851E1	3,495000124E0	8,701050758E0	3,406950235E0
1,192780119E1	3,289050102E0	8,698950768E0	3,331950188E0
1,194796367E1	3,319950104E0	8,173950195E0	3,603000164E0
1,196812622E1	3,094950199E0	7,876950264E0	3,861000299E0
1,198828871E1	2,613000154E0	8,269950867E0	3,727050066E0
1,200845142E1	2,395950079E0	8,641050339E0	3,427950144E0
1,202861395E1	2,791050196E0	8,440050125E0	3,430950165E0
1,204877640E1	3,178050041E0	8,031000137E0	3,531000137E0
1,206893910E1	3,504000187E0	7,693050385E0	3,793950081E0
1,208910154E1	2,704050064E0	8,454000473E0	3,604950190E0
1,210926407E1	2,533950090E0	8,674950600E0	3,490050077E0
1,212942674E1	2,616000175E0	9,060000420E0	3,841950178E0
1,214958927E1	3,139950037E0	9,108000755E0	3,955050230E0
1,216975196E1	3,793950081E0	8,574000359E0	3,772950172E0
1,218991440E1	4,085999966E0	8,233950615E0	3,907050133E0
1,221007693E1	3,507000208E0	8,344050407E0	4,256999969E0
1,223023962E1	3,070950031E0	8,335050583E0	4,351950169E0
1,225040208E1	2,359950066E0	8,718000412E0	3,984000206E0
1,227056462E1	2,343000174E0	8,695950508E0	3,136050224E0
1,229072710E1	2,728050232E0	8,422950745E0	2,832000017E0
1,231088978E1	3,286050081E0	8,157000542E0	3,307950258E0
1,233105225E1	3,327000141E0	7,971000195E0	3,403950214E0
1,235121473E1	3,427050114E0	7,912950516E0	3,706050158E0
1,237137729E1	2,752050161E0	8,619000435E0	3,652950287E0
1,239153978E1	2,250000000E0	9,153000832E0	3,165000200E0
1,241170248E1	2,484000206E0	9,409950256E0	2,736000061E0
1,243186504E1	2,800050020E0	9,261000633E0	3,198000193E0
1,245202749E1	3,492000103E0	8,518950462E0	3,334950209E0
1,247219025E1	4,273050308E0	7,963050365E0	3,568950176E0
1,249235263E1	3,882000208E0	7,870050430E0	3,790050268E0
1,251251516E1	3,259950161E0	7,863000393E0	3,805950165E0
1,253267787E1	2,688000202E0	8,557050705E0	4,120050430E0
1,255284040E1	2,044049978E0	9,249000549E0	3,390000105E0
1,257300287E1	2,238000154E0	8,964000702E0	3,334950209E0
1,259316533E1	3,234000206E0	8,233950615E0	3,037950039E0
1,261332801E1	3,471000195E0	8,160000801E0	3,117000103E0
1,263349054E1	3,154950142E0	8,347050667E0	3,337050200E0
1,265365298E1	2,992050171E0	8,470950127E0	3,880950212E0
1,267381575E1	2,566050053E0	9,004950523E0	3,447000265E0
1,269397822E1	2,251950026E0	9,510000229E0	3,013950109E0
1,271414069E1	2,869950056E0	9,115050316E0	3,469050169E0
1,273430339E1	3,502050161E0	8,529000282E0	3,595950127E0
1,275446592E1	4,195950031E0	7,870050430E0	3,924000263E0
1,277462838E1	4,348950386E0	7,699950218E0	4,348050117E0
1,279479106E1	4,021049976E0	7,750050545E0	4,518000126E0
1,281495352E1	4,014000416E0	8,076000214E0	3,651000261E0
1,283511598E1	4,012050152E0	8,701050758E0	3,162000179E0
1,285527852E1	3,720000267E0	9,028950691E0	3,474000216E0
1,287544122E1	3,781950235E0	8,955000877E0	3,751050234E0
1,289560366E1	3,909000158E0	8,410950661E0	3,955050230E0
1,291576620E1	3,799050093E0	8,280000687E0	3,262950182E0
1,293592865E1	3,633000135E0	8,482950211E0	3,337050200E0
1,295609134E1	3,952050209E0	8,538000107E0	3,000000238E0
1,297625391E1	4,122000217E0	8,686950684E0	2,748000145E0
1,299641660E1	3,777000189E0	8,848950386E0	3,213000059E0
1,301657906E1	3,765000105E0	8,797050476E0	3,193050146E0
1,303674181E1	4,015950203E0	7,984950542E0	2,784000158E0
1,305690403E1	4,215000153E0	7,297950268E0	2,901000023E0
1,307706671E1	3,858000278E0	7,810050488E0	2,857950211E0
1,309722926E1	2,937000036E0	9,124950409E0	2,908950090E0
1,311739166E1	2,338050127E0	9,661050797E0	3,378000259E0
1,313755442E1	2,886000156E0	9,445950508E0	3,346950054E0
1,315771687E1	3,628950119E0	8,788949966E0	3,037950039E0
1,317787931E1	3,660000086E0	8,370000839E0	3,085950136E0
1,319804186E1	3,789000273E0	8,545050621E0	3,114000082E0
1,321820455E1	3,667050123E0	8,778000832E0	3,888000250E0
1,323836708E1	4,294050217E0	8,368050575E0	3,937950134E0
1,325852956E1	4,579050064E0	8,641050339E0	3,403950214E0
1,327869228E1	3,841950178E0	8,847000122E0	3,238950253E0
1,329885475E1	4,261050224E0	7,990050316E0	2,770050049E0
1,331901726E1	4,084050179E0	7,498950481E0	2,691000223E0
1,333917974E1	3,966000080E0	7,606950283E0	3,234000206E0
1,335934245E1	3,388950109E0	8,374950409E0	3,142950058E0
1,337950498E1	3,313050270E0	8,502000809E0	3,295950174E0
1,339966743E1	3,576000214E0	8,533050537E0	3,091050148E0
1,341983014E1	3,696000099E0	8,587950706E0	2,722050190E0
1,343999260E1	3,846000195E0	8,301000595E0	2,511000156E0
1,346015508E1	3,564000130E0	8,505000114E0	2,595000029E0
1,348031762E1	3,067950249E0	8,971050262E0	3,055050135E0
1,350048031E1	3,331950188E0	8,926050186E0	3,157950163E0
1,352064280E1	3,753000259E0	8,587950706E0	3,493050098E0
1,354080526E1	4,347000122E0	8,184000015E0	4,052999973E0
1,356096798E1	4,636950016E0	7,915950298E0	4,017000198E0
1,358113044E1	4,309050083E0	8,302950859E0	3,997950077E0
1,360129297E1	3,696000099E0	8,698950768E0	3,861000299E0
1,362145566E1	3,588000059E0	9,144000053E0	3,208050251E0
1,364161813E1	3,784050226E0	9,163050652E0	2,940000057E0
1,366178066E1	4,147950172E0	8,706000328E0	2,827050209E0
1,368194334E1	4,512000084E0	8,244000435E0	2,856000185E0
1,370210580E1	4,159950256E0	8,074049950E0	3,162000179E0
1,372226833E1	3,363000154E0	8,421000481E0	3,189000130E0
1,374243080E1	3,106950045E0	8,494950294E0	3,282000065E0
1,376259350E1	2,794950247E0	8,562000275E0	3,079050064E0
1,378275602E1	3,202050209E0	8,059050560E0	2,917950153E0
1,380291848E1	3,672000170E0	7,810050488E0	2,818050146E0
1,382308094E1	3,601950169E0	7,855950356E0	3,463950157E0
1,384324366E1	3,325050116E0	8,023050308E0	3,367950201E0
1,386340611E1	2,713950157E0	8,710050583E0	3,592950106E0
1,388356856E1	2,419950008E0	9,151050568E0	3,967050076E0
1,390373111E1	3,258000135E0	9,097949982E0	3,286950111E0
1,392389382E1	3,384000063E0	9,193950653E0	3,550050259E0
1,394405626E1	4,237050056E0	8,440050125E0	3,747000217E0
1,396421881E1	4,636950016E0	7,884000301E0	3,415950060E0
1,398438129E1	4,333050251E0	7,948950291E0	3,378000259E0
1,400454397E1	4,051949978E0	8,193000793E0	3,663000107E0
1,402470641E1	4,014000416E0	8,437950134E0	4,096050262E0
1,404486897E1	4,147950172E0	8,469000816E0	3,423000097E0
1,406503167E1	4,549950123E0	8,268000603E0	2,901000023E0
1,408519412E1	3,937050104E0	8,380050659E0	2,703000069E0
1,410535664E1	3,516000271E0	8,449950218E0	2,286000013E0
1,412551934E1	2,905950069E0	8,125950813E0	2,320050001E0
1,414568180E1	2,692050219E0	8,008950233E0	2,988000154E0
1,416584424E1	2,596950054E0	8,394000053E0	3,691950083E0
1,418600702E1	2,853000164E0	8,401950836E0	3,579000235E0
1,420616925E1	3,796050072E0	7,840950489E0	3,442050219E0
1,422633194E1	3,823050261E0	8,125950813E0	3,592950106E0
1,424649438E1	3,523050070E0	8,614950180E0	3,406950235E0
1,426665693E1	3,508950233E0	8,851950645E0	3,208050251E0
1,428681941E1	3,576000214E0	9,027000427E0	3,402000189E0
1,430698212E1	3,346050262E0	9,292050362E0	3,193050146E0
1,432714464E1	3,616950274E0	8,839950562E0	3,562050104E0
1,434730734E1	4,111950397E0	8,272050858E0	3,640950203E0
1,436746957E1	4,162950039E0	7,870050430E0	3,189000130E0
1,438763229E1	4,093050003E0	7,686000347E0	3,193050146E0
1,440779484E1	3,801000118E0	7,920000553E0	3,253050089E0
1,442795729E1	3,082950115E0	8,457000732E0	3,411000252E0
1,444812000E1	2,878950119E0	8,833050728E0	3,387000084E0
1,446828245E1	3,235950232E0	8,830050468E0	3,112050056E0
1,448844497E1	3,748050213E0	8,289000511E0	2,260050058E0
1,450860741E1	4,118999958E0	8,064000130E0	2,439000130E0
1,452877010E1	3,802950144E0	8,586000443E0	2,523000002E0
1,454893265E1	3,147000074E0	9,055050850E0	2,554050207E0
1,456909534E1	2,865000248E0	9,223050117E0	3,229050159E0
1,458925779E1	3,576000214E0	8,799000740E0	3,411000252E0
1,460942033E1	4,084050179E0	8,140950203E0	3,438000202E0
1,462958302E1	4,155000210E0	7,707000256E0	3,724950075E0
1,464974547E1	4,447050095E0	7,501050472E0	4,450050354E0
1,466990794E1	4,207950115E0	8,112000465E0	3,559950113E0
1,469007047E1	3,691050291E0	8,931000710E0	3,871050119E0
1,471023317E1	3,636000156E0	9,184950829E0	3,118950129E0
1,473039563E1	3,595050097E0	8,914050102E0	3,562050104E0
1,475055820E1	3,222000122E0	8,938050270E0	2,832000017E0
1,477072057E1	3,427050114E0	8,056950569E0	2,607000113E0
1,479088335E1	3,781950235E0	7,852950573E0	2,623950243E0
1,481104557E1	3,688050270E0	8,281949997E0	2,965950251E0
1,483120829E1	3,529950142E0	8,418000221E0	3,342000246E0
1,485137068E1	3,787050247E0	8,643000603E0	4,057950020E0
1,487153323E1	3,526050091E0	8,665050507E0	3,366000175E0
1,489169568E1	3,958950281E0	8,064000130E0	2,616000175E0
1,491185836E1	4,143000126E0	7,920000553E0	2,059050083E0
1,493202082E1	3,492000103E0	8,440050125E0	1,615950108E0
1,495218337E1	3,013050079E0	8,875950813E0	3,037950039E0
1,497234605E1	3,328950167E0	8,701050758E0	3,933000088E0
1,499250850E1	3,945000172E0	8,065950394E0	4,180050373E0
1,501267105E1	4,030950069E0	7,815000534E0	3,450000048E0
1,503283350E1	3,700050116E0	8,107049942E0	3,129000187E0
1,505299620E1	3,016050100E0	9,040950775E0	2,896950245E0
1,507315867E1	2,980050087E0	9,235050201E0	2,815050125E0
1,509332127E1	3,439050198E0	8,938050270E0	3,106950045E0
1,511348396E1	4,024050236E0	8,650950432E0	3,181950092E0
1,513364642E1	4,096050262E0	8,368050575E0	3,363000154E0
1,515380895E1	4,234050274E0	8,002050400E0	3,804000139E0
1,517397140E1	3,910950184E0	8,220000267E0	3,280050039E0
1,519413388E1	3,801000118E0	8,107049942E0	3,478050232E0
1,521429657E1	3,601950169E0	8,634000778E0	2,913000107E0
1,523445904E1	3,478050232E0	8,596050262E0	3,021000147E0
1,525462155E1	3,873000145E0	7,966050148E0	3,229050159E0
1,527478399E1	3,697950125E0	8,019000053E0	3,442050219E0
1,529494668E1	2,865000248E0	8,490000725E0	3,070950031E0
1,531510923E1	2,593950033E0	8,730000496E0	2,965950251E0
1,533527170E1	2,736000061E0	8,866050720E0	2,806050062E0
1,535543416E1	3,592950106E0	8,821050644E0	2,608950138E0
1,537559661E1	4,222050190E0	8,631000519E0	3,169950247E0
1,539575928E1	4,558050156E0	8,437950134E0	3,565050125E0
1,541592183E1	4,495050430E0	8,485050201E0	4,052999973E0
1,543608454E1	3,661950111E0	9,048000336E0	4,611000061E0
1,545624702E1	3,826950073E0	8,968950272E0	3,354000092E0
1,547640949E1	4,234050274E0	9,088950157E0	3,061950207E0
1,549657202E1	4,717950344E0	8,812950134E0	2,635950089E0
1,551673450E1	5,203950405E0	7,758000374E0	2,743050098E0
1,553689720E1	4,479000092E0	7,884000301E0	2,854050159E0
1,555705967E1	3,772050142E0	8,035050392E0	3,202950239E0
1,557722221E1	3,106950045E0	8,430000305E0	3,352050066E0
1,559738489E1	2,761950016E0	8,754000664E0	3,016050100E0
1,561754740E1	3,268950224E0	8,506950378E0	3,142950058E0
1,563770977E1	3,837000132E0	8,160000801E0	2,785950184E0
1,565787222E1	3,958950281E0	8,032950401E0	3,225000143E0
1,567803501E1	3,499050140E0	8,575950623E0	3,556950092E0
1,569819746E1	3,214050055E0	9,004950523E0	3,660000086E0
1,571835992E1	3,550050259E0	9,091050148E0	3,318000078E0
1,573852246E1	3,913950205E0	9,253950119E0	3,270000219E0
1,575868493E1	4,653000355E0	8,545050621E0	3,244050264E0
1,577884766E1	5,107950211E0	8,167050362E0	2,808000088E0
1,579901013E1	4,732050419E0	7,810050488E0	3,076050043E0
1,581917267E1	4,111950397E0	7,879950523E0	3,373050213E0
1,583933513E1	3,223950148E0	8,694000244E0	3,045000076E0
1,585949782E1	3,214050055E0	8,629050255E0	3,091050148E0
1,587966027E1	3,930000305E0	8,006999969E0	2,854050159E0
1,589982273E1	4,118999958E0	7,956000328E0	2,455950022E0
1,591998526E1	3,616950274E0	8,440050125E0	2,434950113E0
1,594014770E1	2,953050137E0	8,611950874E0	2,748000145E0
1,596031039E1	2,673000097E0	8,655000687E0	3,040050030E0
1,598047286E1	2,728050232E0	8,875950813E0	3,378000259E0
1,600063541E1	3,655050278E0	8,454000473E0	3,253050089E0
1,602079787E1	4,416000366E0	8,020950317E0	2,949000120E0
1,604096055E1	4,929000378E0	8,059050560E0	3,249000072E0
1,606112302E1	4,609950066E0	8,562000275E0	3,177000046E0
1,608128555E1	3,781950235E0	9,121950150E0	3,648000240E0
1,610144824E1	3,399000168E0	9,412050247E0	3,409050226E0
1,612161072E1	3,552000284E0	9,096000671E0	2,371950150E0
1,614177326E1	3,990000248E0	8,725049973E0	2,097000122E0
1,616193573E1	4,270050049E0	7,849050522E0	2,824950218E0
1,618209844E1	4,396950245E0	7,422000408E0	3,397050142E0
1,620226093E1	3,805950165E0	7,719000340E0	3,411000252E0
1,622242348E1	3,447000265E0	7,987050533E0	3,334950209E0
1,624258595E1	3,114000082E0	8,313000679E0	2,971050024E0
1,626274862E1	3,028050184E0	8,368050575E0	2,575950146E0
1,628291109E1	3,211950064E0	8,430000305E0	2,758050203E0
1,630307362E1	3,628950119E0	8,257950783E0	2,515950203E0
1,632323609E1	3,823050261E0	8,053950310E0	2,590050220E0
1,634339858E1	3,375000238E0	8,763000488E0	3,343950272E0
1,636356103E1	2,770950079E0	9,406949997E0	3,319950104E0
1,638372370E1	3,325050116E0	8,665050507E0	3,538050175E0
1,640388617E1	4,038000107E0	7,872000217E0	2,755050182E0
1,642404891E1	4,383000374E0	7,948950291E0	2,200050116E0
1,644421112E1	4,222050190E0	8,377950668E0	2,652000189E0
1,646437381E1	3,906000137E0	8,766000748E0	3,964050293E0
1,648453627E1	4,093050003E0	8,964000702E0	4,149000168E0
1,650469881E1	4,273050308E0	8,950050354E0	3,361050129E0
1,652486127E1	4,000050068E0	8,751000404E0	3,117000103E0
1,654502373E1	3,483000278E0	8,502000809E0	2,964000225E0
1,656518644E1	3,496950150E0	7,912950516E0	1,996050119E0
1,658534888E1	3,238050222E0	8,233950615E0	1,671000123E0
1,660551144E1	2,914950132E0	8,641050339E0	1,660950065E0
1,662567391E1	3,205050230E0	8,338950157E0	2,530050039E0
1,664583660E1	3,715050220E0	8,265000343E0	2,836950064E0
1,666599914E1	4,093050003E0	7,927950382E0	3,799050093E0
1,668616159E1	4,084050179E0	8,119050026E0	3,904950142E0
1,670632405E1	3,835050106E0	8,554950714E0	3,406950235E0
1,672648674E1	3,664950132E0	8,952000618E0	3,004050255E0
1,674664920E1	3,451050282E0	9,619950294E0	2,785950184E0
1,676681176E1	3,913950205E0	9,622950554E0	2,904000044E0
1,678697421E1	4,708050251E0	8,775000572E0	2,995050192E0
1,680713690E1	4,993050098E0	8,236050606E0	3,663000107E0
1,682729937E1	4,837950230E0	8,167050362E0	3,375000238E0
1,684746212E1	4,030950069E0	8,430000305E0	3,070950031E0
1,686762435E1	3,721950293E0	8,512050629E0	2,782050133E0
1,688778681E1	3,688050270E0	8,446949959E0	1,993950129E0
1,690794952E1	3,367950201E0	8,136000633E0	2,703000069E0
1,692811196E1	3,348000050E0	7,903950214E0	2,968050241E0
1,694827450E1	2,839050055E0	8,136000633E0	3,538050175E0
1,696843696E1	2,788050175E0	8,551950455E0	2,997000217E0
1,698859967E1	3,277050257E0	8,851950645E0	2,695050240E0
1,700876210E1	3,589950085E0	9,345000267E0	2,554050207E0
1,702892466E1	4,018949986E0	9,433950424E0	2,644950151E0
1,704908712E1	4,335000038E0	9,082050323E0	2,856000185E0
1,706924980E1	3,861000299E0	8,653050423E0	3,069000244E0
1,708941232E1	4,174950123E0	7,645050526E0	3,943050146E0
1,710957479E1	3,990000248E0	7,884000301E0	2,784000158E0
1,712973727E1	4,024050236E0	7,968000412E0	2,518050194E0
1,714989995E1	3,793950081E0	8,157000542E0	2,016000032E0
1,717006241E1	3,583050251E0	8,083050728E0	2,322000027E0
1,719022495E1	3,423000097E0	8,260050774E0	3,012000084E0
1,721038742E1	2,769000053E0	8,619000435E0	2,461050034E0
1,723055014E1	2,862000227E0	8,710050583E0	1,965000153E0
1,725071261E1	3,147000074E0	9,091050148E0	1,719000101E0
1,727087516E1	3,826950073E0	8,947950363E0	1,776000142E0
1,729103759E1	4,620000362E0	8,574000359E0	2,887050152E0
1,731120008E1	4,560000420E0	8,602950096E0	3,592950106E0
1,733136255E1	4,273050308E0	8,683950424E0	4,113000393E0
1,735152500E1	4,027950287E0	9,172950745E0	3,184050083E0
1,737168768E1	4,171950340E0	9,204000473E0	2,844000101E0
1,739185024E1	4,854000092E0	8,605050087E0	2,254950047E0
1,741201269E1	5,089050293E0	8,191050529E0	2,071050167E0
1,743217516E1	4,504950047E0	8,086050034E0	2,430000067E0
1,745233783E1	3,732000113E0	7,861050606E0	2,401050091E0
1,747250034E1	2,980050087E0	8,164950371E0	2,406000137E0
1,749266279E1	2,545950174E0	8,323050499E0	2,851050138E0
1,751282525E1	2,539050102E0	8,209950447E0	3,150000095E0
1,753298794E1	3,115950108E0	7,888950348E0	2,815050125E0
1,755315039E1	3,028050184E0	8,353950500E0	3,451950073E0
1,757331292E1	2,628000021E0	9,187050819E0	3,756000280E0
1,759347540E1	2,601000071E0	9,654000282E0	3,619950056E0
1,761363786E1	3,198000193E0	9,273000717E0	3,676950216E0
1,763380055E1	3,327000141E0	9,679950714E0	3,241050243E0
1,765396300E1	4,230000019E0	9,358950615E0	2,815050125E0
1,767412557E1	5,158950329E0	8,386950493E0	2,832000017E0
1,769428804E1	5,250000477E0	8,425950050E0	3,295950174E0
1,771445053E1	4,981050014E0	8,623950005E0	3,679950237E0
1,773461321E1	4,507050037E0	8,406000137E0	4,282950401E0
1,775477576E1	4,810950279E0	7,494000435E0	4,225049973E0
1,777493822E1	4,582050323E0	7,324050426E0	3,286950111E0
1,779510067E1	4,309050083E0	7,324050426E0	2,449050188E0
1,781526336E1	3,552000284E0	7,792950153E0	2,382000208E0
1,783542582E1	2,845950127E0	8,545050621E0	2,185050011E0
1,785558834E1	2,020050049E0	9,144000053E0	3,165000200E0
1,787575082E1	2,467050076E0	8,928000450E0	3,604950190E0
1,789591329E1	3,018000126E0	8,596050262E0	2,923050165E0
1,791607600E1	3,696000099E0	8,089950562E0	3,201000214E0
1,793623853E1	4,258049965E0	8,176950455E0	3,543000221E0
1,795640099E1	4,002000332E0	8,983050346E0	3,699000120E0
1,797656348E1	4,306050301E0	9,133950233E0	3,991050243E0
1,799672618E1	4,645950317E0	8,935950279E0	3,667950153E0
1,801688863E1	4,347000122E0	8,701050758E0	3,325050116E0
1,803705116E1	4,036050320E0	8,248050690E0	2,614050150E0
1,805721362E1	3,636000156E0	7,855950356E0	2,037000179E0
1,807737607E1	2,965050220E0	7,843950272E0	2,961000204E0
1,809753881E1	2,716050148E0	7,990050316E0	3,450000048E0
1,811770117E1	2,944050074E0	8,313000679E0	3,375000238E0
1,813786362E1	3,315000057E0	8,053950310E0	2,956050158E0
1,815802616E1	3,198000193E0	8,161950111E0	2,953950167E0
1,817818863E1	2,848050117E0	8,578950882E0	2,788950205E0
1,819835132E1	2,749950171E0	8,791950226E0	3,270000219E0
1,821851377E1	2,961000204E0	8,940000534E0	3,055050135E0
1,823867632E1	3,295950174E0	9,048000336E0	3,619950056E0
1,825883879E1	4,062000275E0	8,871000290E0	3,771000147E0
1,827900148E1	4,701000214E0	8,533050537E0	3,838050127E0
1,829916396E1	4,534049988E0	8,647950172E0	3,462000132E0
1,831932651E1	4,138950348E0	8,902050018E0	3,679950237E0
1,833948896E1	3,553950071E0	9,556050301E0	3,363000154E0
1,835965142E1	3,460950136E0	8,902050018E0	3,579000235E0
1,837981389E1	3,990000248E0	7,530000210E0	3,073950052E0
1,839997658E1	3,784050226E0	7,161000252E0	3,328050137E0
1,842013905E1	3,327000141E0	7,351050377E0	3,189000130E0
1,844030162E1	3,106950045E0	7,410000324E0	3,781950235E0
1,846046408E1	2,677950144E0	8,125950813E0	4,137000084E0
1,848062656E1	2,625000238E0	9,040950775E0	4,024050236E0
1,850078924E1	2,872050047E0	9,589050293E0	3,861000299E0
1,852095170E1	3,949050188E0	8,695950508E0	3,631950140E0
1,854111425E1	4,258049965E0	8,610000610E0	3,387000084E0
1,856127670E1	3,973050117E0	8,878050804E0	2,581050158E0
1,858143947E1	3,778950214E0	8,690999985E0	2,173950195E0
1,860160193E1	2,584950209E0	9,501000404E0	3,844950199E0
1,862176464E1	2,854950190E0	8,690999985E0	3,319950104E0
1,864192711E1	3,514050245E0	7,999050617E0	2,905950069E0
1,866208956E1	3,126000166E0	8,113950729E0	3,457050085E0
1,868225207E1	3,411000252E0	7,920000553E0	3,447000265E0
1,870241449E1	3,408000231E0	8,224050522E0	3,421050072E0
1,872257718E1	3,174000263E0	9,027000427E0	3,064050198E0
1,874273966E1	3,475050211E0	8,827950478E0	2,937000036E0
1,876290220E1	4,051949978E0	8,169000626E0	3,141000032E0
1,878306467E1	3,406050205E0	8,160000801E0	3,105000257E0
1,880322715E1	3,186000109E0	8,409000397E0	3,385050058E0
1,882338985E1	2,680050135E0	9,177000046E0	4,410000324E0
1,884355208E1	3,130950212E0	9,180000305E0	4,290000439E0
1,886371477E1	3,832050085E0	8,758049965E0	3,232050180E0
1,888387723E1	3,688050270E0	8,811000824E0	3,817950249E0
1,890403969E1	3,945000172E0	8,008950233E0	3,547950268E0
1,892420247E1	3,835050106E0	7,834050179E0	3,331950188E0
1,894436469E1	3,268950224E0	8,590950012E0	4,015050411E0
1,896452739E1	2,926950216E0	9,160950661E0	3,840000153E0
1,898468983E1	3,918000221E0	8,374950409E0	2,916000128E0
1,900485235E1	4,129050255E0	7,980000496E0	2,683950186E0
1,902501481E1	3,826950073E0	8,019000053E0	3,430950165E0
1,904517748E1	3,235950232E0	8,470950127E0	3,772950172E0
1,906533974E1	3,411000252E0	8,224050522E0	4,174950123E0
1,908550251E1	3,733950138E0	8,245950699E0	3,454050064E0
1,910566495E1	3,487050056E0	8,566950798E0	2,796000242E0
1,912582738E1	3,463050127E0	8,578950882E0	3,268050194E0
1,914599007E1	3,577950239E0	8,454000473E0	3,058950186E0
1,916615252E1	3,661950111E0	8,338950157E0	2,788950205E0
1,918631500E1	3,667050123E0	8,457000732E0	3,385050058E0
1,920647752E1	3,246000051E0	8,690999985E0	3,178950071E0
1,922664000E1	3,267000198E0	8,281949997E0	3,976050138E0
1,924680269E1	3,352950096E0	7,984950542E0	3,663000107E0
1,926696516E1	3,544950247E0	7,726050377E0	3,313050270E0
1,928712762E1	3,427050114E0	8,317950249E0	2,751000166E0
1,930729018E1	2,925000191E0	9,208050728E0	3,601050138E0
1,932745288E1	2,965050220E0	9,625050545E0	4,285050392E0
1,934761534E1	3,367950201E0	9,637050629E0	3,924000263E0
1,936777786E1	3,672000170E0	9,256050110E0	2,959050179E0
1,938794025E1	4,126950264E0	8,815950394E0	2,379000187E0
1,940810277E1	4,294050217E0	8,557050705E0	2,626050234E0
1,942826544E1	4,335000038E0	8,374950409E0	2,901000023E0
1,944842790E1	4,048050404E0	9,016950607E0	3,510000229E0
1,946859036E1	4,276950359E0	8,665050507E0	3,226950169E0
1,948875282E1	4,005000114E0	8,476050377E0	2,659950018E0
1,950891537E1	3,151950121E0	9,106050491E0	2,599950075E0
1,952907805E1	3,571050167E0	8,076000214E0	2,575950146E0
1,954924053E1	3,562050104E0	7,729050159E0	2,286000013E0
1,956940304E1	2,944050074E0	8,674950600E0	3,097950220E0
1,958956551E1	2,749950171E0	9,145950317E0	2,797950029E0
1,960972821E1	3,376950264E0	8,586000443E0	2,643000126E0
1,962989068E1	3,685950279E0	7,609050274E0	1,528950095E0
1,965005317E1	2,827050209E0	7,297950268E0	2,437050104E0
1,967021569E1	2,770950079E0	6,850050449E0	3,112050056E0
1,969037815E1	2,203950167E0	7,068000317E0	3,636000156E0
1,971054085E1	2,017050028E0	8,020950317E0	3,070950031E0
1,973070330E1	1,833000064E0	8,956950188E0	4,752000332E0
1,975086579E1	2,701950073E0	9,409950256E0	4,828950405E0
1,977102826E1	3,442050219E0	9,832950592E0	2,557050228E0
1,979119073E1	4,143000126E0	9,670950890E0	1,917000055E0
1,981135327E1	4,318050385E0	9,484050751E0	2,773950100E0
1,983151574E1	3,753000259E0	9,835950851E0	3,696000099E0
1,985167842E1	3,781950235E0	9,433950424E0	3,817950249E0
1,987184085E1	4,051949978E0	9,010050774E0	3,196050167E0
1,989200332E1	3,964050293E0	8,788949966E0	3,373050213E0
1,991216587E1	3,214050055E0	9,019050598E0	3,462000132E0
1,993232831E1	3,346050262E0	9,225000381E0	3,703050137E0
1,995249102E1	3,456000090E0	9,249000549E0	3,493050098E0
1,997265357E1	3,877950191E0	9,450000763E0	2,724000216E0
1,999281602E1	3,811050177E0	1,026195049E1	2,904000044E0
2,001297848E1	3,736050129E0	9,811950684E0	3,238950253E0
2,003314096E1	3,351000071E0	8,986050606E0	3,397050142E0
2,005330341E1	3,186000109E0	8,344050407E0	2,764950037E0
2,007346611E1	2,938950062E0	7,864950180E0	2,770050049E0
2,009362857E1	3,379950047E0	7,288050175E0	2,296050072E0
2,011379111E1	2,977050066E0	7,780950546E0	2,073000193E0
2,013395360E1	2,689950228E0	7,942050457E0	3,178950071E0
2,015411628E1	2,755050182E0	7,353000164E0	4,482000351E0
2,017427876E1	2,500950098E0	7,468050480E0	4,045950413E0
2,019444124E1	2,521950006E0	7,980000496E0	3,009000063E0
2,021460369E1	2,515050173E0	8,593050003E0	2,278950214E0
2,023476619E1	2,805000067E0	8,940000534E0	1,798050046E0
2,025492890E1	2,845950127E0	9,160950661E0	2,536950111E0
2,027509136E1	2,913000107E0	9,148950577E0	2,892000198E0
2,029525381E1	2,941050053E0	8,803950310E0	3,483000278E0
2,031541634E1	3,459000111E0	8,641050339E0	3,816000223E0
2,033557882E1	3,865950108E0	8,931000710E0	3,634050131E0
2,035574126E1	4,427999973E0	9,043050766E0	3,154950142E0
2,037590395E1	4,938000202E0	8,657999992E0	2,844000101E0
2,039606644E1	4,324950218E0	8,938050270E0	2,752950191E0
2,041622891E1	3,199950218E0	9,164999962E0	2,989950180E0
2,043639145E1	3,004050255E0	9,181950569E0	3,814050198E0
2,045655391E1	3,195000172E0	9,409950256E0	3,040050030E0
2,047671638E1	3,229050159E0	9,070050240E0	3,306000233E0
2,049687907E1	2,854950190E0	8,341950417E0	2,830050230E0
2,051704150E1	3,289050102E0	7,200000286E0	3,000000238E0
2,053720428E1	2,728050232E0	7,606950283E0	3,154950142E0
2,055736651E1	2,434050083E0	8,164950371E0	3,748950243E0
2,057752897E1	2,521950006E0	8,755949974E0	4,066950321E0
2,059769174E1	3,070950031E0	9,661050797E0	3,865950108E0
2,061785412E1	3,909000158E0	9,805050850E0	2,836950064E0
2,063801666E1	4,111950397E0	9,058050156E0	1,828950047E0
2,065817911E1	3,793950081E0	8,347050667E0	2,310000181E0
2,067834156E1	3,448950052E0	8,368050575E0	2,530050039E0
2,069850404E1	3,238050222E0	8,296050072E0	3,679950237E0
2,071866673E1	3,601950169E0	7,710000515E0	3,402000189E0
2,073882926E1	3,664950132E0	7,699950218E0	2,338950157E0
2,075899170E1	3,183000088E0	8,473050117E0	2,350950003E0
2,077915416E1	2,901000023E0	9,325950623E0	3,129000187E0
2,079931685E1	3,609000206E0	9,610950470E0	2,533050060E0
2,081947932E1	3,661950111E0	9,393000603E0	1,783050060E0
2,083964184E1	3,054000139E0	8,751000404E0	2,712000132E0
2,085980431E1	2,278050184E0	8,169000626E0	4,300050259E0
2,087996677E1	2,848050117E0	7,057950497E0	4,756950378E0
2,090012947E1	2,155950069E0	7,923000336E0	4,816950321E0
2,092029193E1	2,211000204E0	8,742000580E0	5,142000198E0
2,094045438E1	2,922000170E0	9,211050034E0	4,695000172E0
2,096061692E1	2,997000217E0	1,005600071E1	4,192049980E0
2,098077938E1	3,379950047E0	9,987000465E0	4,297049999E0
2,100094183E1	4,102950096E0	9,256050110E0	3,106950045E0
2,102110452E1	5,190000057E0	7,738050461E0	1,864950061E0
2,104126705E1	4,579050064E0	7,552050591E0	1,750050068E0
2,106142974E1	3,355950117E0	8,203050613E0	2,419950008E0
2,108159220E1	2,560950041E0	8,056950569E0	3,387000084E0
2,110175475E1	2,002950191E0	7,956000328E0	4,683000088E0
2,112191722E1	2,230050087E0	7,614000320E0	5,506050110E0
2,114207968E1	2,572950125E0	7,132950306E0	5,626050472E0
2,116224214E1	2,713950157E0	7,104000568E0	5,461050034E0
2,118240484E1	2,635050058E0	7,353000164E0	4,944000244E0
2,120256733E1	1,977000117E0	8,086050034E0	4,561050415E0
2,122272986E1	1,519050121E0	8,887950897E0	4,684950352E0
2,124289236E1	1,476000071E0	9,316050529E0	4,042950153E0
2,126305485E1	2,089050055E0	9,085950851E0	4,189949989E0
2,128321732E1	3,292950153E0	8,513999939E0	4,360050201E0
2,130337978E1	3,745950222E0	8,480999947E0	4,692000389E0
2,132354253E1	3,565950155E0	8,694000244E0	5,104050159E0
2,134370490E1	3,813000202E0	8,268000603E0	5,296050072E0
2,136386738E1	3,661950111E0	8,176950455E0	4,695000172E0
2,138402991E1	3,511050224E0	8,044950485E0	5,116050243E0
2,140419238E1	3,004050255E0	7,795950413E0	4,987050056E0
2,142435505E1	2,629950047E0	7,843950272E0	4,054950237E0
2,144451750E1	1,854000092E0	8,587950706E0	3,771000147E0
2,146468003E1	1,831050038E0	8,851950645E0	3,643950224E0
2,148484247E1	2,329050064E0	8,706000328E0	3,415950060E0
2,150500520E1	3,085050106E0	8,476050377E0	3,511950254E0
2,152516766E1	3,214050055E0	8,452050209E0	3,991050243E0
2,154533013E1	3,076050043E0	8,370000839E0	3,790050268E0
2,156549289E1	3,094950199E0	8,181000710E0	3,909000158E0
2,158565511E1	3,315000057E0	8,107049942E0	3,895050287E0
2,160581757E1	3,004050255E0	8,466000557E0	3,780000210E0
2,162598026E1	3,154950142E0	8,325000763E0	3,418950081E0
2,164614272E1	3,222000122E0	8,380050659E0	2,716950178E0
2,166630520E1	3,046950102E0	8,529000282E0	2,377050161E0
2,168646797E1	2,508000135E0	9,079050064E0	2,770050049E0
2,170663016E1	2,881950140E0	8,940000534E0	3,411000252E0
2,172679285E1	3,502050161E0	8,563950539E0	3,766050100E0
2,174695539E1	4,074000359E0	8,080950737E0	4,429050446E0
2,176711778E1	3,964050293E0	8,229000092E0	4,531949997E0
2,178728034E1	3,978000164E0	8,361000061E0	4,081950188E0
2,180744279E1	3,801000118E0	8,440050125E0	3,604950190E0
2,182760526E1	3,492000103E0	8,818050385E0	3,450000048E0
2,184776806E1	3,130950212E0	9,141000748E0	3,945000172E0
2,186793043E1	3,550050259E0	8,940000534E0	3,973950148E0
2,188809290E1	3,637950182E0	8,842050552E0	3,790050268E0
2,190825569E1	3,580950260E0	8,857050896E0	3,169950247E0
2,192841793E1	3,472950220E0	8,653050423E0	2,161950111E0
2,194858039E1	2,782950163E0	9,003000259E0	2,362950087E0
2,196874310E1	2,260950089E0	9,297000885E0	3,334950209E0
2,198890563E1	2,932050228E0	8,653050423E0	3,306000233E0
2,200906807E1	3,781950235E0	8,212050438E0	3,136050224E0
2,202923053E1	2,857950211E0	8,967000008E0	3,421050072E0
2,204939320E1	2,845950127E0	8,703000069E0	3,064050198E0
2,206955565E1	3,472950220E0	7,852950573E0	2,470050097E0
2,208971843E1	2,821950197E0	7,987050533E0	3,411000252E0
2,210988091E1	2,290050030E0	8,301000595E0	4,381050110E0
2,213004336E1	1,890000105E0	8,914050102E0	4,696950436E0
2,215020589E1	2,009999990E0	9,193950653E0	4,213050365E0
2,217036835E1	2,632950068E0	8,883000374E0	3,114000082E0
2,219053079E1	3,030000210E0	8,551950455E0	2,839050055E0
2,221069324E1	3,142950058E0	8,377950668E0	3,835050106E0
2,223085572E1	2,913000107E0	8,575950623E0	4,242000103E0
2,225101842E1	2,601000071E0	8,995050430E0	4,318950176E0
2,227118089E1	1,993050098E0	9,595950127E0	3,061950207E0
2,229134335E1	2,359950066E0	9,169950485E0	2,655000210E0
2,231150589E1	2,724000216E0	8,742000580E0	2,740950108E0
2,233166834E1	3,358050108E0	7,702050209E0	3,442050219E0
2,235183082E1	3,382050276E0	7,573050499E0	3,462000132E0
2,237199349E1	2,344950199E0	8,641050339E0	3,943050146E0
2,239215597E1	2,290050030E0	9,012000084E0	4,065000057E0
2,241231842E1	2,874000072E0	9,028950691E0	3,307950258E0
2,243248095E1	3,696000099E0	8,482950211E0	3,562050104E0
2,245264339E1	4,085999966E0	7,908000469E0	3,670050144E0
2,247280609E1	3,691050291E0	8,089950562E0	4,170000076E0
2,249296856E1	3,123000145E0	8,566950798E0	4,371000290E0
2,251313101E1	3,040050030E0	9,040950775E0	4,054950237E0
2,253329348E1	3,114000082E0	9,157950401E0	3,253050089E0
2,255345601E1	3,514050245E0	8,718000412E0	2,686050177E0
2,257361846E1	3,352950096E0	8,347050667E0	2,628000021E0
2,259378093E1	3,243000269E0	7,906050205E0	2,731050014E0
2,261394362E1	2,917950153E0	7,707000256E0	2,985000134E0
2,263410616E1	2,308950186E0	8,220000267E0	4,019999981E0
2,265426858E1	2,154000044E0	8,677050591E0	4,612950325E0
2,267443113E1	2,800050020E0	8,725049973E0	4,039050102E0
2,269459360E1	3,483000278E0	8,875950813E0	3,117000103E0
2,271475631E1	3,898950100E0	9,046050072E0	2,716950178E0
2,273491878E1	4,183950424E0	8,851950645E0	2,038950205E0
2,275508123E1	4,543050289E0	8,562000275E0	2,074949980E0
2,277524378E1	4,030950069E0	8,730000496E0	2,788950205E0
2,279540624E1	3,580950260E0	8,899950027E0	3,406950235E0
2,281556893E1	3,553950071E0	8,878050804E0	3,208050251E0
2,283573139E1	3,769950151E0	8,932950020E0	2,647950172E0
2,285589385E1	3,844050169E0	8,842050552E0	2,451000214E0
2,287605629E1	3,595050097E0	8,962050438E0	2,013000011E0
2,289621872E1	2,914950132E0	9,598950386E0	2,194950104E0
2,291638127E1	2,992050171E0	9,321000099E0	2,680950165E0
2,293654394E1	3,528000116E0	8,611950874E0	3,411000252E0
2,295670642E1	3,778950214E0	8,296050072E0	3,397050142E0
2,297686888E1	3,703050137E0	7,915950298E0	3,136050224E0
2,299703144E1	3,460950136E0	7,485000134E0	3,031050205E0
2,301719390E1	2,524950027E0	7,855950356E0	3,217050076E0
2,303735636E1	1,926000118E0	8,554950714E0	3,885000229E0
2,305751904E1	2,260950089E0	8,743950844E0	4,146000385E0
2,307768151E1	3,243000269E0	8,449950218E0	3,450000048E0
2,309784399E1	3,766950130E0	8,398950577E0	2,917950153E0
2,311800654E1	3,970950127E0	8,185950279E0	3,232050180E0
2,313816922E1	3,516000271E0	8,320050240E0	3,141000032E0
2,315833167E1	2,692050219E0	8,890050888E0	3,703050137E0
2,317849413E1	2,857950211E0	8,995050430E0	3,859050274E0
2,319865664E1	3,817950249E0	8,518950462E0	3,885000229E0
2,321881912E1	4,462050438E0	8,196000099E0	3,909000158E0
2,323898157E1	4,926000118E0	7,870050430E0	3,172050238E0
2,325914400E1	4,524000168E0	8,014050484E0	3,148050070E0
2,327930646E1	3,403950214E0	8,562000275E0	3,349050045E0
2,329946916E1	3,328950167E0	8,361000061E0	3,483000278E0
2,331963169E1	4,098000050E0	7,726050377E0	3,205050230E0
2,333979412E1	4,230000019E0	7,729050159E0	3,225000143E0
2,335995660E1	4,147950172E0	7,780950546E0	3,375000238E0
2,338011932E1	3,805950165E0	8,217000008E0	3,249000072E0
2,340028178E1	3,664950132E0	9,031050682E0	2,572950125E0
2,342044428E1	4,075950146E0	8,911950111E0	1,470000029E0
2,344060685E1	4,093050003E0	8,241000175E0	1,249050021E0
2,346076923E1	3,307950258E0	8,181000710E0	2,407950163E0
2,348093180E1	3,018000126E0	8,466000557E0	3,283950090E0
2,350109449E1	3,721950293E0	8,536050797E0	4,134000301E0
2,352125697E1	4,394999981E0	8,335050583E0	4,113000393E0
2,354141944E1	4,570050240E0	8,605050087E0	3,607950211E0
2,356158222E1	4,476000309E0	8,758049965E0	3,367950201E0
2,358174467E1	4,443000317E0	8,572050095E0	3,310950041E0
2,360190712E1	4,677000046E0	8,418000221E0	2,860950232E0
2,362206969E1	3,990000248E0	8,665050507E0	3,421050072E0
2,364223213E1	3,492000103E0	8,983050346E0	3,517050266E0
2,366239459E1	3,648000240E0	9,010050774E0	4,254000187E0
2,368255726E1	4,335000038E0	8,385000229E0	4,342950344E0
2,370271968E1	4,725000381E0	7,618950367E0	3,724950075E0
2,372288214E1	3,757950068E0	7,975050449E0	3,157950163E0
2,374304468E1	2,793000221E0	8,313000679E0	2,989950180E0
2,376320708E1	2,391000032E0	8,323050499E0	3,598050117E0
2,378336952E1	2,269050121E0	8,847000122E0	3,919050217E0
2,380353229E1	2,743050098E0	8,959050179E0	3,742050171E0
2,382369474E1	3,958950281E0	8,050050735E0	3,699000120E0
2,384385721E1	4,480950356E0	7,480050564E0	3,268050194E0
2,386401966E1	3,853950262E0	7,999050617E0	3,792000294E0
2,388418211E1	3,123000145E0	8,381999969E0	3,969000101E0
2,390434465E1	3,382050276E0	8,121000290E0	3,859050274E0
2,392450712E1	3,553950071E0	8,458950043E0	3,421050072E0
2,394466958E1	3,475050211E0	8,895000458E0	3,390000105E0
2,396483225E1	4,050000191E0	8,694000244E0	3,085950136E0
2,398499472E1	4,479000092E0	8,430000305E0	3,088050127E0
2,400515719E1	4,081050396E0	8,638950348E0	3,202950239E0
2,402531972E1	4,074000359E0	7,975050449E0	2,584950209E0
2,404548219E1	3,688050270E0	7,819950581E0	2,899050236E0
2,406564487E1	3,151950121E0	8,169000626E0	2,923050165E0
2,408580732E1	3,088050127E0	8,458950043E0	2,764950037E0
2,410596977E1	3,367950201E0	8,253000259E0	2,965950251E0
2,412613232E1	3,388950109E0	8,362950325E0	2,857950211E0
2,414629478E1	3,271950245E0	8,755949974E0	2,734050035E0
2,416645725E1	3,367950201E0	8,746050835E0	2,377050161E0
2,418661994E1	3,472950220E0	8,554950714E0	2,194950104E0
2,420678240E1	3,246000051E0	8,662950516E0	1,897950053E0
2,422694488E1	2,889000177E0	8,758049965E0	2,446050167E0
2,424710742E1	3,067950249E0	8,787000656E0	2,287950039E0
2,426726990E1	3,067950249E0	8,883000374E0	2,386950016E0
2,428743235E1	3,592950106E0	8,572050095E0	2,026950121E0
2,430759481E1	3,540000200E0	8,512050629E0	2,197050095E0
2,432775750E1	3,207000256E0	8,947950363E0	2,557050228E0
2,434791998E1	2,878950119E0	9,460050583E0	2,797950029E0
2,436808251E1	3,334050179E0	9,613050461E0	2,455950022E0
2,438824494E1	3,913950205E0	9,541050911E0	2,170950174E0
2,440840739E1	4,312950134E0	9,346950531E0	1,893000126E0
2,442856982E1	4,456950188E0	8,964000702E0	1,972050071E0
2,444873229E1	4,143000126E0	8,791950226E0	1,993950129E0
2,446889495E1	3,721950293E0	8,932950020E0	2,035050154E0
2,448905751E1	3,787050247E0	9,144000053E0	2,257050037E0
2,450921998E1	3,787050247E0	9,522000313E0	2,502000093E0
2,452938246E1	4,153050423E0	9,337950706E0	1,747050047E0
2,454954514E1	4,443000317E0	8,749050140E0	1,399950027E0
2,456970760E1	4,093050003E0	8,599950790E0	1,752000093E0
2,458987015E1	3,637950182E0	8,566950798E0	1,822050095E0
2,461003261E1	3,258000135E0	8,538000107E0	1,909950137E0
2,463019530E1	3,073050261E0	8,653050423E0	1,980000138E0
2,465035778E1	3,042000055E0	8,899950027E0	2,080049992E0
2,467052026E1	3,841950178E0	8,464050293E0	2,265000105E0
2,469068284E1	3,997050285E0	8,943000793E0	1,603950024E0
2,471084524E1	4,261050224E0	9,070050240E0	1,740000129E0
2,473100778E1	4,297049999E0	8,718000412E0	1,546050072E0
2,475117022E1	3,885000229E0	8,911950111E0	1,462050080E0
2,477133268E1	3,210000038E0	9,148950577E0	2,008050203E0
2,479149534E1	3,250050068E0	9,016950607E0	2,185050011E0
2,481165758E1	3,985050201E0	8,517000198E0	2,515950203E0
2,483182028E1	4,131000042E0	8,385000229E0	1,900950074E0
2,485198282E1	3,918000221E0	8,505000114E0	2,130000114E0
2,487214528E1	3,340950251E0	9,181950569E0	1,968000054E0
2,489230771E1	3,574050188E0	8,920950890E0	2,559000015E0
2,491247016E1	3,715050220E0	8,377950668E0	4,290000439E0
2,493263287E1	3,709950209E0	8,398950577E0	3,921000242E0
2,495279531E1	3,376950264E0	8,722050667E0	2,494050026E0
2,497295786E1	3,279000044E0	8,797050476E0	2,647950172E0
2,499312030E1	3,195000172E0	9,103050232E0	2,679000139E0
2,501328277E1	3,423000097E0	9,070050240E0	2,845950127E0
2,503344548E1	3,789000273E0	8,755949974E0	3,082950115E0
2,505360796E1	3,918000221E0	8,892000198E0	3,178950071E0
2,507377042E1	3,781950235E0	9,060000420E0	2,560950041E0
2,509393297E1	3,894000292E0	8,494950294E0	3,172050238E0
2,511409545E1	4,318050385E0	8,299050331E0	1,984050035E0
2,513425790E1	3,616950274E0	8,755949974E0	2,572950125E0
2,515442061E1	3,456000090E0	8,418000221E0	2,569050074E0
2,517458308E1	3,559050083E0	8,011050224E0	3,114000082E0
2,519474556E1	3,291000128E0	8,386950493E0	2,506050110E0
2,521490808E1	3,028050184E0	8,485050201E0	2,971050024E0
2,523507052E1	2,689950228E0	9,043050766E0	2,959050179E0
2,525523320E1	2,677950144E0	9,049950600E0	3,439950228E0
2,527539567E1	3,235950232E0	8,653050423E0	2,322000027E0
2,529555813E1	3,367950201E0	8,731950760E0	2,442000151E0
2,531572060E1	2,989050150E0	9,127050400E0	2,748000145E0
2,533588310E1	3,583050251E0	9,004950523E0	3,298950195E0
2,535604553E1	3,343950272E0	9,501000404E0	2,698050022E0
2,537620822E1	3,565950155E0	9,261000633E0	2,554050207E0
2,539637066E1	4,135950089E0	8,485050201E0	2,596950054E0
2,541653320E1	3,633000135E0	8,416049957E0	2,941950083E0
2,543669567E1	3,277050257E0	8,410950661E0	3,793950081E0
2,545685812E1	2,740050077E0	8,596050262E0	3,948000193E0
2,547702059E1	3,295950174E0	8,065950394E0	2,971050024E0
2,549718327E1	2,977050066E0	8,602950096E0	2,560950041E0
2,551734575E1	2,788050175E0	8,854050636E0	2,253000021E0
2,553750823E1	3,255000114E0	8,557050705E0	2,764950037E0
2,555767079E1	3,375000238E0	8,392050743E0	3,172050238E0
2,557783327E1	3,303000212E0	8,449950218E0	2,491950035E0
2,559799573E1	3,595050097E0	8,002050400E0	3,237000227E0
2,561815843E1	3,454050064E0	8,200050354E0	3,292050123E0
2,563832089E1	3,142950058E0	8,641050339E0	3,526050091E0
2,565848336E1	3,259950161E0	8,899950027E0	3,190950155E0
2,567864589E1	3,396000147E0	8,976000786E0	2,688000202E0
2,569880833E1	3,540000200E0	9,027000427E0	2,478000164E0
2,571897103E1	3,681000233E0	9,082050323E0	2,274000168E0
2,573913347E1	4,098000050E0	9,010050774E0	2,626050234E0
2,575929594E1	4,183950424E0	9,145950317E0	3,154950142E0
2,577945839E1	4,984050274E0	8,788949966E0	2,560950041E0
2,579962094E1	5,187000275E0	8,665050507E0	1,780950069E0
2,581978341E1	4,687050343E0	8,923950195E0	1,443000078E0
2,583994609E1	4,543050289E0	8,908950806E0	1,948050141E0
2,586010859E1	4,303950310E0	8,971050262E0	1,792950034E0
2,588027114E1	4,246050358E0	8,758049965E0	2,322000027E0
2,590043359E1	4,368000031E0	8,557050705E0	2,374950171E0
2,592059605E1	4,543050289E0	8,031000137E0	1,939050078E0
2,594075851E1	4,327950001E0	8,257950783E0	1,438050032E0
2,596092124E1	4,138950348E0	8,701050758E0	1,498050094E0
2,598108375E1	4,384950161E0	8,551950455E0	1,860000134E0
2,600124621E1	4,534049988E0	8,421000481E0	2,026950121E0
2,602140868E1	4,147950172E0	8,464050293E0	1,855050087E0
2,604157138E1	3,886950254E0	8,950050354E0	1,915050149E0
2,606173384E1	3,811050177E0	9,390000343E0	2,146950006E0
2,608189636E1	4,107000351E0	9,129000664E0	4,690500200E-1
2,610205878E1	3,969000101E0	9,508050919E0	-3,105000220E-2
2,612222123E1	4,069050312E0	9,424050331E0	5,449500084E-1
2,614238397E1	3,933000088E0	8,992950439E0	1,792950034E0
2,616254642E1	3,837000132E0	8,665050507E0	1,980000138E0
2,618270889E1	3,844050169E0	8,538000107E0	2,458050013E0
2,620287141E1	3,691050291E0	8,799000740E0	2,848950148E0
2,622303388E1	3,921000242E0	8,248050690E0	2,164050102E0
2,624319638E1	3,837000132E0	7,735950470E0	1,543950081E0
2,626335885E1	3,343950272E0	8,065950394E0	1,980000138E0
2,628352151E1	2,557950020E0	9,129000664E0	2,188050032E0
2,630368401E1	2,688000202E0	9,012000084E0	2,317050219E0
2,632384655E1	3,745950222E0	8,248050690E0	1,843050122E0
2,634400903E1	4,159950256E0	8,502000809E0	1,077000022E0
2,636417148E1	3,793950081E0	9,043050766E0	1,359000087E0
2,638433394E1	3,769950151E0	9,544050217E0	2,659950018E0
2,640449640E1	4,024050236E0	9,706950188E0	3,118950129E0
2,642465906E1	3,892050266E0	9,711000443E0	2,026950121E0
2,644482155E1	4,062000275E0	8,818050385E0	2,353049994E0
2,646498403E1	3,817950249E0	8,461050034E0	2,188050032E0
2,648514654E1	3,283950090E0	8,268000603E0	2,478000164E0
2,650530925E1	3,384000063E0	8,176950455E0	2,794050217E0
2,652547169E1	3,178050041E0	8,811000824E0	3,390000105E0
2,654563416E1	3,247950077E0	9,039000511E0	2,985000134E0
2,656579662E1	3,813000202E0	8,799000740E0	1,885950089E0
2,658595908E1	3,894000292E0	9,064949989E0	1,402950048E0
2,660612163E1	3,459000111E0	9,538950920E0	2,097000122E0
2,662628428E1	3,514050245E0	9,381000519E0	2,451000214E0
2,664644677E1	3,652950287E0	9,187050819E0	2,473050117E0
2,666660923E1	3,906000137E0	8,506950378E0	2,362950087E0
2,668677169E1	3,708000183E0	8,452050209E0	3,085950136E0
2,670693414E1	2,985000134E0	8,770050049E0	3,310950041E0
2,672709694E1	2,986950159E0	8,290950775E0	3,469050169E0
2,674725937E1	3,126000166E0	7,992000580E0	3,318000078E0
2,676742182E1	2,733000040E0	8,397000313E0	2,671950102E0
2,678758428E1	2,569950104E0	8,670000076E0	2,626050234E0
2,680774672E1	2,872050047E0	9,100950241E0	2,797950029E0
2,682790929E1	2,902950048E0	9,796950340E0	2,824950218E0
2,684807172E1	3,715050220E0	9,538950920E0	2,085000038E0
2,686823441E1	4,765950203E0	8,710050583E0	7,420500517E-1
2,688839688E1	3,934950113E0	9,007050514E0	1,189050078E0
2,690855933E1	3,187950134E0	9,040950775E0	2,401050091E0
2,692872187E1	3,241050243E0	8,584050179E0	2,463000059E0
2,694888434E1	3,304950237E0	7,956000328E0	2,278950214E0
2,696904678E1	3,226050138E0	7,590000153E0	2,952000141E0
2,698920925E1	3,111000061E0	7,951050282E0	3,033000231E0
2,700937193E1	3,207000256E0	8,323050499E0	3,924000263E0
2,702953446E1	3,844050169E0	8,433000565E0	3,342000246E0
2,704969693E1	3,940050125E0	8,866050720E0	2,751000166E0
2,706985962E1	4,273050308E0	9,027000427E0	2,170950174E0
2,709002216E1	3,870000124E0	9,702000618E0	2,005950212E0
2,711018454E1	4,162950039E0	9,259050369E0	1,644000053E0
2,713034707E1	4,476000309E0	9,034049988E0	6,559500098E-1
2,715050947E1	3,997050285E0	9,346950531E0	1,528950095E0
2,717067202E1	3,382050276E0	9,373950005E0	2,973000050E0
2,719083449E1	4,027950287E0	8,670000076E0	2,638050079E0
2,721099698E1	3,825000286E0	8,530950546E0	2,418000221E0
2,723115967E1	3,463050127E0	8,542950630E0	2,173950195E0
2,725132215E1	3,328950167E0	8,272050858E0	2,887050152E0
2,727148464E1	3,301050186E0	8,470950127E0	2,680950165E0
2,729164717E1	3,142950058E0	9,157950401E0	2,619000196E0
2,731180963E1	3,504000187E0	8,845050812E0	2,518050194E0
2,733197232E1	3,538050175E0	8,983050346E0	2,250000000E0
2,735213481E1	2,985000134E0	9,847950935E0	2,776950121E0
2,737229735E1	3,753000259E0	9,298950195E0	3,181950092E0
2,739245981E1	4,813950062E0	8,131050110E0	2,716950178E0
2,741262224E1	4,771050453E0	8,236050606E0	2,695050240E0
2,743278493E1	3,862950087E0	8,587950706E0	2,281050205E0
2,745294739E1	3,894000292E0	7,780950546E0	1,510050058E0
2,747310985E1	3,106950045E0	7,801050186E0	1,516950130E0
2,749327241E1	2,053050041E0	8,469000816E0	2,560950041E0
2,751343485E1	2,056050062E0	8,341950417E0	3,535950184E0
2,753359733E1	2,713950157E0	8,313000679E0	3,133950233E0
2,755376002E1	2,680050135E0	8,842050552E0	2,989950180E0
2,757392248E1	3,258000135E0	9,319050789E0	2,374950171E0
2,759408496E1	3,540000200E0	9,955950737E0	1,630050063E0
2,761424750E1	3,490050077E0	1,026000023E1	1,968000054E0
2,763440995E1	3,444000244E0	9,976950645E0	2,269050121E0
2,765457263E1	3,478050232E0	8,608050346E0	2,109000206E0
2,767473510E1	3,925950289E0	6,436050415E0	1,770000011E-1
2,769489755E1	3,351000071E0	5,751000404E0	4,260000288E-1
2,771506010E1	1,251000047E0	8,157000542E0	3,121950150E0
2,773522250E1	5,640000105E-1	9,904950142E0	5,928000450E0
2,775538505E1	3,763050079E0	8,209950447E0	4,165950298E0
2,777554777E1	4,977000237E0	7,686000347E0	2,559000015E0
2,779571025E1	3,154950142E0	9,570000648E0	3,688950062E0
2,781587273E1	2,566050053E0	1,006095028E1	4,066950321E0
2,783603526E1	3,298050165E0	9,421950340E0	2,326950073E0
2,785619773E1	4,096050262E0	8,751000404E0	8,760000467E-1
2,787636019E1	3,267000198E0	1,051305008E1	1,980000138E0
2,789652287E1	3,403950214E0	1,040595055E1	2,944050074E0
2,791668530E1	5,170950413E0	7,450950146E0	8,059500456E-1
2,793684781E1	4,905000210E0	6,414000511E0	1,867050052E0
2,795701026E1	2,569950104E0	7,651950359E0	2,905950069E0
2,797717274E1	2,351999998E0	7,245000362E0	3,805950165E0
2,799733545E1	2,451000214E0	7,525050163E0	3,378000259E0
2,801749790E1	1,906950116E0	9,052950859E0	4,732950211E0
2,803766034E1	2,272950172E0	1,060005093E1	4,575000286E0
2,805782280E1	4,335000038E0	1,048905087E1	3,250950098E0
2,807798532E1	5,593950272E0	9,883950233E0	7,660500407E-1
2,809814779E1	4,720050335E0	9,694950104E0	9,739500284E-1
2,811831029E1	3,384000063E0	9,532050133E0	2,185050011E0
2,813847299E1	3,247950077E0	8,928000450E0	2,487000227E0
2,815863544E1	3,243000269E0	8,509050369E0	2,077950001E0
2,817879789E1	3,439050198E0	8,329950333E0	3,397050142E0
2,819896045E1	3,751050234E0	7,935000420E0	3,234000206E0
2,821912291E1	3,799050093E0	7,741050243E0	2,904000044E0
2,823928560E1	3,693000078E0	7,621050358E0	2,260050058E0
2,825944807E1	2,685000181E0	8,394000053E0	3,045000076E0
2,827961050E1	2,467050076E0	8,655000687E0	2,584950209E0
2,829977297E1	2,958000183E0	8,526000023E0	2,077950001E0
2,831993549E1	3,406050205E0	8,713050842E0	2,032050133E0
2,834009796E1	3,076050043E0	9,079050064E0	2,563950062E0
2,836026068E1	2,893950224E0	9,192000389E0	3,712950230E0
2,838042313E1	3,178050041E0	9,193950653E0	3,439950228E0
2,840058559E1	3,607050180E0	9,019050598E0	3,310950041E0
2,842074813E1	4,102950096E0	8,731950760E0	3,019050121E0
2,844091059E1	4,026000023E0	8,677050591E0	2,461050034E0
2,846107307E1	4,147950172E0	8,476050377E0	3,105000257E0
2,848123577E1	3,744000196E0	8,674950600E0	2,097000122E0
2,850139824E1	3,444000244E0	8,755949974E0	2,904000044E0
2,852156079E1	3,741000175E0	8,763000488E0	2,382000208E0
2,854172350E1	3,897000074E0	8,742000580E0	1,438050032E0
2,856188595E1	3,766950130E0	8,706000328E0	2,509050131E0
2,858204850E1	3,595050097E0	8,755949974E0	2,635950089E0
2,860221095E1	3,552000284E0	8,329950333E0	2,182950020E0
2,862237365E1	3,070950031E0	8,707950592E0	2,572950125E0
2,864253614E1	2,749950171E0	8,988000870E0	3,331950188E0
2,866269860E1	3,541950226E0	8,512050629E0	2,200050116E0
2,868286113E1	4,117050171E0	8,524050713E0	2,521050215E0
2,870302359E1	3,571050167E0	8,904000282E0	3,229050159E0
2,872318604E1	3,928050280E0	8,931000710E0	1,860000134E0
2,874334847E1	3,099000216E0	9,663000107E0	2,506050110E0
2,876351091E1	2,803050041E0	9,694950104E0	2,001000166E0
2,878367361E1	3,523050070E0	9,067049980E0	2,688000202E0
2,880383606E1	3,970950127E0	8,545050621E0	1,861950040E0
2,882399858E1	4,045050144E0	8,131050110E0	2,302950144E0
2,884416105E1	3,552000284E0	8,244000435E0	2,329050064E0
2,886432349E1	2,695050240E0	8,569050789E0	3,198000193E0
2,888448597E1	3,316950083E0	8,466000557E0	2,752950191E0
2,890464865E1	3,292950153E0	8,935950279E0	2,455950022E0
2,892481113E1	3,685950279E0	8,605050087E0	2,712000132E0
2,894497372E1	3,928050280E0	8,410950661E0	2,425050020E0
2,896513618E1	3,625950098E0	8,233950615E0	2,406000137E0
2,898529868E1	3,447000265E0	8,098050117E0	2,149950027E0
2,900546138E1	2,700000048E0	8,731950760E0	3,022950172E0
2,902562382E1	2,475000143E0	9,381000519E0	3,019050121E0
2,904578636E1	3,619050264E0	8,926050186E0	2,844000101E0
2,906594880E1	4,050000191E0	8,851950645E0	2,391000032E0
2,908611126E1	4,111950397E0	8,682000160E0	2,154000044E0
2,910627395E1	3,660000086E0	8,659950256E0	2,047049999E0
2,912643637E1	3,325050116E0	8,938050270E0	2,145000219E0
2,914659890E1	3,523050070E0	8,892000198E0	2,664000034E0
2,916676133E1	3,600000143E0	8,695950508E0	2,367000103E0
2,918692375E1	3,472950220E0	8,839950562E0	2,518050194E0
2,920708620E1	3,355950117E0	8,749050140E0	2,626050234E0
2,922724889E1	3,066000223E0	8,719950676E0	2,332050085E0
2,924741140E1	2,791050196E0	9,061950684E0	2,254950047E0
2,926757388E1	2,745000124E0	9,039000511E0	2,590050220E0
2,928773631E1	3,130950212E0	9,052950859E0	1,780950069E0
2,930789901E1	3,592950106E0	8,761050224E0	2,122950077E0
2,932806156E1	3,492000103E0	8,513999939E0	1,963050127E0
2,934822396E1	3,277050257E0	8,362950325E0	2,782050133E0
2,936838651E1	2,874000072E0	8,707950592E0	3,184050083E0
2,938854899E1	3,058950186E0	8,610000610E0	3,526050091E0
2,940871146E1	3,415950060E0	8,409000397E0	2,751000166E0
2,942887414E1	3,241050243E0	8,478000641E0	2,419950008E0
2,944903660E1	3,406050205E0	8,554950714E0	2,703000069E0
2,946919908E1	3,018000126E0	9,103050232E0	3,313050270E0
2,948936159E1	3,529950142E0	8,857050896E0	3,331950188E0
2,950952426E1	3,709950209E0	8,907000542E0	3,213000059E0
2,952968672E1	3,516000271E0	9,505050659E0	3,001950026E0
2,954984925E1	3,981000185E0	9,052950859E0	2,782050133E0
2,957001172E1	3,937050104E0	8,602950096E0	2,265000105E0
2,959017419E1	3,942000151E0	8,461050034E0	2,326950073E0
2,961033688E1	3,508950233E0	8,686950684E0	2,623950243E0
2,963049934E1	3,406050205E0	8,952000618E0	2,536950111E0
2,965066178E1	3,700050116E0	9,043050766E0	2,824950218E0
2,967082424E1	4,123950005E0	8,682000160E0	2,932950258E0
2,969098673E1	4,300950050E0	8,317950249E0	2,197050095E0
2,971114920E1	3,835050106E0	8,121000290E0	1,491000056E0
2,973131173E1	2,767050028E0	8,749050140E0	2,794050217E0
2,975147421E1	2,748000145E0	9,036000252E0	2,262000084E0
2,977163690E1	3,661950111E0	8,662950516E0	2,101950169E0
2,979179936E1	4,084050179E0	8,938050270E0	2,872950077E0
2,981196189E1	3,781950235E0	9,205950737E0	3,121950150E0
2,983212433E1	4,129050255E0	8,695950508E0	2,760000229E0
2,985228678E1	3,030000210E0	9,184950829E0	3,270000219E0
2,987244949E1	2,455050230E0	9,268050194E0	3,222000122E0
2,989261194E1	3,037050247E0	8,907000542E0	2,407950163E0
2,991277439E1	3,262050152E0	9,177000046E0	3,346950054E0
2,993293692E1	4,474050045E0	8,347050667E0	2,983050108E0
2,995309936E1	4,584000111E0	8,245950699E0	2,896950245E0
2,997326204E1	3,717000246E0	8,952000618E0	2,752950191E0
2,999342451E1	3,238050222E0	9,049950600E0	2,557050228E0
3,001358698E1	3,025050163E0	8,803950310E0	1,893000126E0
3,003374950E1	3,612000227E0	8,433000565E0	1,707000136E0
3,005391196E1	3,693000078E0	8,478000641E0	1,867050052E0
3,007407445E1	3,604950190E0	8,521050453E0	3,165000200E0
3,009423691E1	3,157050133E0	9,358950615E0	2,976000071E0
3,011439960E1	3,367950201E0	9,139050484E0	2,655000210E0
3,013456208E1	3,703050137E0	9,019050598E0	1,537050128E0
3,015472462E1	3,126000166E0	9,582000732E0	1,980000138E0
3,017488710E1	3,672000170E0	9,118050575E0	2,341050148E0
3,019504981E1	4,356000423E0	8,193000793E0	2,083050013E0
3,021521226E1	3,660000086E0	8,374950409E0	2,149950027E0
3,023537471E1	3,154950142E0	8,884950638E0	3,037950039E0
3,025553722E1	3,387000084E0	8,836950302E0	2,880000114E0
3,027569968E1	4,060050011E0	8,695950508E0	1,860000134E0
3,029586216E1	3,625950098E0	9,118050575E0	2,724000216E0
3,031602462E1	3,511050224E0	9,225000381E0	2,710050106E0
3,033618739E1	3,028050184E0	8,923950195E0	3,109950066E0
3,035634977E1	2,829000235E0	8,788949966E0	2,146950006E0
3,037651228E1	2,934000254E0	8,374950409E0	1,981950045E0
3,039667475E1	3,243000269E0	8,185950279E0	1,489050031E0
3,041683721E1	3,190050125E0	8,542950630E0	1,828950047E0
3,043699994E1	2,914950132E0	8,835000038E0	3,495000124E0
3,045716241E1	3,562050104E0	8,348999977E0	2,542050123E0
3,047732497E1	3,547050238E0	8,690999985E0	2,959050179E0
3,049748763E1	2,953050137E0	9,831000328E0	2,545050144E0
3,051765012E1	3,412950277E0	9,799950600E0	2,602050066E0
3,053781259E1	3,430050135E0	9,469050407E0	2,593050241E0
3,055797505E1	3,898950100E0	8,824950218E0	2,053950071E0
3,057813753E1	3,684000254E0	8,137949944E0	2,473050117E0
3,059830007E1	4,072050095E0	7,462950230E0	2,272050142E0
3,061846276E1	3,042000055E0	8,131050110E0	2,467950106E0
3,063862499E1	3,016050100E0	8,347050667E0	2,877000093E0
3,065878769E1	2,902950048E0	8,410950661E0	2,845950127E0
3,067895016E1	2,743050098E0	8,659950256E0	3,198000193E0
3,069911267E1	2,509950161E0	8,914050102E0	3,256050110E0
3,071927514E1	2,287950039E0	9,187050819E0	3,046950102E0
3,073943784E1	2,922000170E0	9,424050331E0	2,989950180E0
3,075960029E1	3,672000170E0	9,333000183E0	2,185050011E0
3,077976283E1	4,588950157E0	9,052950859E0	3,352050066E0
3,079992530E1	4,239000320E0	9,244050026E0	3,664950132E0
3,082008776E1	3,913950205E0	9,096000671E0	2,401050091E0
3,084025046E1	3,700050116E0	8,818050385E0	2,005950212E0
3,086041292E1	3,315000057E0	8,746050835E0	1,885950089E0
3,088057537E1	3,157050133E0	9,253950119E0	2,073000193E0
3,090073793E1	3,811050177E0	9,036000252E0	3,142950058E0
3,092090063E1	4,701000214E0	8,353950500E0	3,117000103E0
3,094106286E1	4,396950245E0	8,824950218E0	1,659000039E0
3,096122556E1	3,099000216E0	9,517050743E0	2,026950121E0
3,098138801E1	2,821950197E0	9,310950279E0	2,455950022E0
3,100155055E1	3,454050064E0	8,325000763E0	3,138000250E0
3,102171324E1	4,021049976E0	7,872000217E0	2,896950245E0
3,104187569E1	3,724050283E0	8,185950279E0	2,233050108E0
3,106203824E1	3,088050127E0	8,608050346E0	3,049950123E0
3,108220070E1	3,291000128E0	8,622000694E0	2,812950134E0
3,110236315E1	3,316950083E0	8,822999954E0	2,314950228E0
3,112252584E1	3,729000092E0	8,598000526E0	2,068050146E0
3,114268826E1	3,613950253E0	8,662950516E0	1,801950097E0
3,116285078E1	3,609000206E0	8,548050880E0	2,503950119E0
3,118301327E1	3,589950085E0	8,350950241E0	2,533050060E0
3,120317573E1	3,556950092E0	8,160000801E0	2,446050167E0
3,122333842E1	2,994000196E0	8,995050430E0	2,820000172E0
3,124350064E1	3,343950272E0	9,478950500E0	2,559000015E0
3,126366334E1	3,868050098E0	9,352050781E0	3,082950115E0
3,128382577E1	4,455000401E0	9,208050728E0	2,178000212E0
3,130398826E1	4,234050274E0	9,027000427E0	2,004000187E0
3,132415081E1	3,853950262E0	8,755949974E0	1,917000055E0
3,134431325E1	3,588000059E0	8,679000854E0	2,700000048E0
3,136447596E1	3,823050261E0	8,590950012E0	2,095050097E0
3,138463842E1	3,861000299E0	8,722050667E0	2,157000065E0
3,140480096E1	3,406050205E0	8,944950104E0	2,473050117E0
3,142496364E1	3,367950201E0	8,643000603E0	2,980050087E0
3,144512610E1	3,391950130E0	8,314949989E0	2,533050060E0
3,146528859E1	3,123000145E0	8,332050323E0	3,567000151E0
3,148545105E1	3,103950262E0	8,397000313E0	3,213000059E0
3,150561351E1	3,301050186E0	8,301000595E0	2,833950043E0
3,152577606E1	3,280950069E0	8,348999977E0	2,785950184E0
3,154593873E1	2,830950022E0	9,112950325E0	3,979050159E0
3,156610118E1	2,890950203E0	9,358950615E0	3,943050146E0
3,158626362E1	3,688050270E0	8,827950478E0	3,118950129E0
3,160642616E1	3,765000105E0	8,872950554E0	2,797950029E0
3,162658864E1	3,540000200E0	8,643000603E0	3,622050285E0
3,164675109E1	3,799050093E0	8,224050522E0	3,787050247E0
3,166691376E1	3,825000286E0	7,702050209E0	3,343950272E0
3,168707622E1	3,517950058E0	7,626000404E0	3,310950041E0
3,170723878E1	2,617950201E0	8,373000145E0	3,835050106E0
3,172740127E1	2,275950193E0	8,539950371E0	3,354000092E0
3,174756398E1	2,673000097E0	8,104949951E0	3,073950052E0
3,176772644E1	2,793000221E0	8,068950653E0	3,280050039E0
3,178788890E1	2,841000080E0	8,196000099E0	2,929950237E0
3,180805145E1	2,725950241E0	8,545050621E0	3,739050150E0
3,182821393E1	2,436000109E0	9,343050003E0	3,505050182E0
3,184837664E1	3,243000269E0	9,333000183E0	2,353049994E0
3,186853909E1	3,838950157E0	9,010050774E0	2,869950056E0
3,188870160E1	3,846000195E0	8,920950890E0	2,254950047E0
3,190886406E1	3,520950079E0	8,677050591E0	3,415950060E0
3,192902674E1	2,848050117E0	8,902050018E0	3,390000105E0
3,194918921E1	2,803050041E0	9,000000000E0	2,797950029E0
3,196935167E1	2,806950092E0	9,490950584E0	3,373050213E0
3,198951421E1	3,507000208E0	9,256050110E0	2,995050192E0
3,200967691E1	4,495050430E0	8,446949959E0	2,386950016E0
3,202983947E1	3,772050142E0	8,871000290E0	3,226950169E0
3,205000192E1	3,316950083E0	9,010050774E0	3,481050253E0
3,207016462E1	3,613950253E0	8,809050560E0	2,703000069E0
3,209032707E1	4,275000095E0	8,433000565E0	2,976000071E0
3,211048950E1	3,853950262E0	8,703000069E0	3,466050148E0
3,213065207E1	4,054950237E0	8,590950012E0	3,201000214E0
3,215081454E1	3,727050066E0	8,677050591E0	2,755050182E0
3,217097700E1	3,195000172E0	8,719950676E0	3,177000046E0
3,219113945E1	3,055950165E0	9,091050148E0	2,560950041E0
3,221130214E1	2,965050220E0	8,787000656E0	2,800950050E0
3,223146460E1	2,934000254E0	8,305950165E0	2,772000074E0
3,225162711E1	3,064050198E0	8,181000710E0	2,593050241E0
3,227178980E1	2,704050064E0	8,677050591E0	2,643000126E0
3,229195226E1	2,685000181E0	8,880000114E0	3,246000051E0
3,231211482E1	2,977050066E0	9,385950089E0	2,425050020E0
3,233227728E1	3,207000256E0	9,268050194E0	2,784000158E0
3,235243970E1	3,874950171E0	8,605050087E0	3,009000063E0
3,237260239E1	3,918000221E0	8,695950508E0	2,856000185E0
3,239276484E1	3,576000214E0	8,554950714E0	3,427950144E0
3,241292739E1	3,475050211E0	8,690999985E0	3,541050196E0
3,243308986E1	2,740050077E0	9,541050911E0	4,177950382E0
3,245325233E1	3,375000238E0	9,039000511E0	3,457050085E0
3,247341501E1	4,198050022E0	8,538000107E0	2,188050032E0
3,249357757E1	4,515000343E0	8,302950859E0	8,230500221E-1
3,251374002E1	3,645000219E0	8,494950294E0	2,928000212E0
3,253390248E1	3,346050262E0	8,578950882E0	3,751050234E0
3,255406515E1	3,154950142E0	8,478000641E0	3,019050121E0
3,257422763E1	3,367950201E0	8,232000351E0	2,851050138E0
3,259439010E1	3,303000212E0	8,348999977E0	2,872950077E0
3,261455263E1	3,564000130E0	8,008950233E0	3,069000244E0
3,263471531E1	3,538050175E0	8,204999924E0	3,283950090E0
3,265487777E1	2,973000050E0	8,634000778E0	3,796950102E0
3,267504020E1	3,648000240E0	8,251049995E0	3,330000162E0
3,269520277E1	3,046950102E0	9,120000839E0	3,711000204E0
3,271536524E1	3,247950077E0	9,085950851E0	2,676000118E0
3,273552773E1	4,012050152E0	8,062050819E0	1,860000134E0
3,275569043E1	3,910950184E0	8,197950363E0	2,758050203E0
3,277585287E1	3,234000206E0	8,719950676E0	3,202950239E0
3,279601541E1	3,331950188E0	8,635950089E0	3,129000187E0
3,281617787E1	3,709950209E0	8,566950798E0	3,091050148E0
3,283634064E1	3,645000219E0	8,857050896E0	3,093000174E0
3,285650305E1	3,889950275E0	8,635950089E0	2,559000015E0
3,287666551E1	4,239000320E0	8,659950256E0	2,218950033E0
3,289682806E1	3,700050116E0	8,959050179E0	2,842050076E0
3,291699049E1	3,552000284E0	9,040950775E0	2,566050053E0
3,293715319E1	3,667050123E0	8,791950226E0	1,551000118E0
3,295731567E1	4,239000320E0	8,299050331E0	1,888950109E0
3,297747820E1	4,243950367E0	8,454000473E0	2,557050228E0
3,299764093E1	4,444950104E0	8,128950119E0	3,282000065E0
3,301780317E1	4,005000114E0	8,488050461E0	3,487950087E0
3,303796586E1	3,637950182E0	8,635950089E0	4,234950066E0
3,305812839E1	3,211950064E0	8,530950546E0	4,348050117E0
3,307829085E1	2,857950211E0	8,314949989E0	4,216050148E0
3,309845333E1	3,052050114E0	7,723950386E0	3,615000248E0
3,311861601E1	2,917950153E0	7,506000519E0	3,463950157E0
3,313877845E1	2,731050014E0	7,579950333E0	3,816000223E0
3,315894100E1	2,460000038E0	8,269950867E0	3,912000179E0
3,317910345E1	2,347950220E0	9,180000305E0	3,154950142E0
3,319926615E1	2,106000185E0	9,738000870E0	3,871050119E0
3,321942860E1	2,958000183E0	8,896950722E0	3,969000101E0
3,323959104E1	3,676950216E0	8,031000137E0	4,003050327E0
3,325975381E1	2,850000143E0	8,164950371E0	4,000050068E0
3,327991606E1	2,593950033E0	7,912950516E0	5,487000465E0
3,330007874E1	2,601000071E0	8,125950813E0	4,642050266E0
3,332024119E1	2,398050070E0	8,659950256E0	4,192049980E0
3,334040372E1	2,941050053E0	8,350950241E0	4,354950428E0
3,336056618E1	3,376950264E0	8,157000542E0	3,945000172E0
3,338072888E1	3,456000090E0	8,041950226E0	4,564949989E0
3,340089143E1	3,061050177E0	8,293950081E0	4,278000355E0
3,342105387E1	2,524950027E0	8,749050140E0	4,960050106E0
3,344121633E1	2,724000216E0	8,394000053E0	4,197000027E0
3,346137903E1	3,681000233E0	7,762050152E0	3,390000105E0
3,348154148E1	3,174000263E0	7,996950150E0	3,937950134E0
3,350170405E1	2,563050032E0	8,517000198E0	4,527000427E0
3,352186674E1	2,737950087E0	8,562000275E0	3,988050222E0
3,354202919E1	3,319950104E0	8,430000305E0	3,853950262E0
3,356219174E1	3,811050177E0	8,212050438E0	3,724950075E0
3,358235421E1	4,218000412E0	8,041950226E0	4,491000175E0
3,360251690E1	3,693000078E0	8,440050125E0	4,410000324E0
3,362267943E1	3,556950092E0	8,787000656E0	3,957000256E0
3,364284189E1	3,415950060E0	8,730000496E0	3,340050220E0
3,366300435E1	3,648000240E0	8,196000099E0	2,856000185E0
3,368316680E1	3,388950109E0	8,020950317E0	3,724950075E0
3,370332928E1	3,195000172E0	8,074049950E0	4,869000435E0
3,372349204E1	4,036050320E0	7,585050583E0	4,000050068E0
3,374365442E1	4,206000328E0	7,339050293E0	4,157999992E0
3,376381698E1	3,724050283E0	7,992000580E0	3,949950218E0
3,378397946E1	3,223950148E0	8,782050133E0	4,453050137E0
3,380414214E1	2,994000196E0	9,049950600E0	3,924000263E0
3,382430467E1	3,787050247E0	8,104949951E0	3,055050135E0
3,384446714E1	3,882000208E0	7,530000210E0	2,458050013E0
3,386462961E1	3,352950096E0	7,567950249E0	3,411000252E0
3,388479230E1	2,521950006E0	8,248050690E0	3,310950041E0
3,390495471E1	2,884050131E0	8,392050743E0	3,021000147E0
3,392511726E1	2,866950035E0	8,701050758E0	3,454050064E0
3,394527971E1	3,250050068E0	8,578950882E0	3,430950165E0
3,396544238E1	3,801000118E0	8,116950035E0	3,838050127E0
3,398560489E1	3,910950184E0	7,971000195E0	3,105000257E0
3,400576734E1	3,813000202E0	8,161950111E0	3,523950100E0
3,402592980E1	3,511050224E0	8,550000191E0	3,295950174E0
3,404609248E1	3,169050217E0	8,872950554E0	3,559950113E0
3,406625496E1	3,040050030E0	9,010050774E0	3,682050228E0
3,408641751E1	3,307950258E0	8,827950478E0	3,916950226E0
3,410657996E1	3,370050192E0	8,581050873E0	3,646050215E0
3,412674266E1	3,885000229E0	8,112000465E0	3,847050190E0
3,414690519E1	3,844050169E0	8,341950417E0	4,270950317E0
3,416706767E1	3,348000050E0	8,818050385E0	4,776000023E0
3,418723014E1	3,442050219E0	8,754000664E0	4,390950203E0
3,420739284E1	3,766950130E0	8,500050545E0	4,003050327E0
3,422755530E1	3,997050285E0	8,071050644E0	3,577050209E0
3,424771808E1	4,198050022E0	7,546950340E0	3,694050074E0
3,426788032E1	3,637950182E0	7,816950321E0	5,013000011E0
3,428804305E1	2,431050062E0	8,788949966E0	5,638050079E0
3,430820552E1	2,472000122E0	9,084000587E0	4,549050331E0
3,432836810E1	3,183000088E0	8,347050667E0	3,679950237E0
3,434853054E1	4,014000416E0	7,807950497E0	3,612000227E0
3,436869326E1	3,898950100E0	7,717050552E0	4,363950253E0
3,438885574E1	3,490050077E0	8,071050644E0	4,840950012E0
3,440901829E1	3,126000166E0	8,617050171E0	4,266000271E0
3,442918074E1	3,130950212E0	8,818050385E0	4,342950344E0
3,444934342E1	3,805950165E0	8,659950256E0	3,586050272E0
3,446950594E1	4,171950340E0	8,107049942E0	4,090950012E0
3,448966862E1	4,396950245E0	7,828950405E0	3,562050104E0
3,450983108E1	4,171950340E0	7,951050282E0	3,510000229E0
3,452999351E1	3,813000202E0	7,947000504E0	4,137000084E0
3,455015603E1	3,619050264E0	7,882050514E0	4,477050304E0
3,457031851E1	3,468000174E0	8,071050644E0	3,805950165E0
3,459048118E1	3,568950176E0	8,136000633E0	3,586050272E0
3,461064363E1	3,910950184E0	7,759950161E0	4,503000259E0
3,463080608E1	4,215000153E0	7,444050312E0	4,744950294E0
3,465096864E1	4,033050060E0	7,647000313E0	4,249050140E0
3,467113112E1	2,994000196E0	8,770050049E0	4,306950092E0
3,469129381E1	2,053050041E0	9,472050667E0	4,099050045E0
3,471145627E1	2,857950211E0	9,118050575E0	3,225000143E0
3,473161880E1	3,589950085E0	8,682000160E0	3,583950281E0
3,475178127E1	4,219950199E0	8,275050163E0	3,556950092E0
3,477194406E1	4,447050095E0	7,960950375E0	4,312050343E0
3,479210646E1	4,126950264E0	8,062050819E0	4,423950195E0
3,481226900E1	3,930000305E0	8,157000542E0	3,736950159E0
3,483243148E1	3,460950136E0	8,440050125E0	3,439950228E0
3,485259417E1	3,346050262E0	8,314949989E0	3,133950233E0
3,487275671E1	3,265050173E0	8,204999924E0	3,061950207E0
3,489291919E1	2,800050020E0	8,370000839E0	3,529050112E0
3,491308165E1	3,126000166E0	8,167050362E0	3,736950159E0
3,493324436E1	3,472950220E0	8,160000801E0	4,170000076E0
3,495340683E1	3,805950165E0	8,385000229E0	4,206000328E0
3,497356936E1	3,811050177E0	8,866050720E0	3,823050261E0
3,499373180E1	4,194000244E0	8,749050140E0	3,378000259E0
3,501389446E1	4,210050106E0	8,301000595E0	3,459000111E0
3,503405692E1	3,820050240E0	8,251049995E0	3,664950132E0
3,505421946E1	3,861000299E0	7,414950371E0	4,030950069E0
3,507438209E1	3,609000206E0	7,219050407E0	4,213050365E0
3,509454453E1	2,487000227E0	8,131050110E0	5,194950104E0
3,511470699E1	2,314050198E0	8,670000076E0	4,891050339E0
3,513486953E1	2,592000008E0	9,052950859E0	4,534049988E0
3,515503224E1	2,676000118E0	9,240000725E0	4,579950333E0
3,517519471E1	3,292950153E0	8,839950562E0	4,333050251E0
3,519535725E1	3,934950113E0	8,256000519E0	4,042950153E0
3,521551972E1	4,072050095E0	8,107049942E0	4,114950180E0
3,523568241E1	3,235950232E0	8,478000641E0	4,494000435E0
3,525584495E1	3,387000084E0	8,269950867E0	4,157999992E0
3,527600743E1	2,833950043E0	8,056950569E0	3,871050119E0
3,529616987E1	2,994000196E0	7,710000515E0	3,358950138E0
3,531633254E1	2,560950041E0	7,465050220E0	3,057000160E0
3,533649509E1	2,257050037E0	7,362000465E0	3,660000086E0
3,535665753E1	1,612950087E0	7,542000294E0	5,166000366E0
3,537682000E1	1,708050132E0	7,987050533E0	4,744950294E0
3,539698277E1	2,391000032E0	8,092950821E0	4,561050415E0
3,541714515E1	3,054000139E0	8,026050568E0	4,024050236E0
3,543730770E1	3,471000195E0	8,095050812E0	3,457050085E0
3,545747015E1	3,162000179E0	8,605050087E0	4,228050232E0
3,547763284E1	2,862000227E0	9,039000511E0	3,847050190E0
3,549779539E1	3,379950047E0	9,015000343E0	3,804000139E0
3,551795785E1	3,418050051E0	9,003000259E0	3,571950197E0
3,553812032E1	3,874950171E0	8,560050011E0	3,567000151E0
3,555828300E1	4,107000351E0	8,239050865E0	3,921000242E0
3,557844547E1	4,146000385E0	7,978050232E0	4,233000278E0
3,559860800E1	4,114950180E0	7,920000553E0	3,889950275E0
3,561877047E1	3,552000284E0	8,323050499E0	4,057950020E0
3,563893317E1	2,601000071E0	9,000000000E0	4,230000019E0
3,565909563E1	3,018000126E0	8,404050827E0	3,736950159E0
3,567925815E1	3,676950216E0	7,710000515E0	2,545050144E0
3,569942062E1	3,444000244E0	7,840950489E0	3,129000187E0
3,571958332E1	3,214050055E0	7,875000477E0	3,145950079E0
3,573974579E1	3,037050247E0	7,990050316E0	3,495000124E0
3,575990857E1	2,146950006E0	9,153000832E0	3,655950069E0
3,578007104E1	2,424000025E0	9,208050728E0	3,921000242E0
3,580023351E1	3,757950068E0	8,233950615E0	3,409050226E0
3,582039600E1	4,255949974E0	8,062050819E0	3,636000156E0
3,584055854E1	4,063950062E0	8,428050041E0	3,226950169E0
3,586072124E1	3,676950216E0	8,773050308E0	3,490050077E0
3,588088372E1	3,552000284E0	8,779950142E0	3,241050243E0
3,590104626E1	3,010950089E0	9,313950539E0	3,114000082E0
3,592120874E1	2,980050087E0	9,424050331E0	2,875050068E0
3,594137122E1	3,940050125E0	8,505000114E0	2,590050220E0
3,596153398E1	4,387950420E0	8,167050362E0	2,971050024E0
3,598169644E1	4,026000023E0	8,305950165E0	3,535950184E0
3,600185913E1	3,303000212E0	8,926050186E0	3,727050066E0
3,602202159E1	3,088050127E0	8,938050270E0	3,379950047E0
3,604218409E1	3,502050161E0	8,337000847E0	2,985000134E0
3,606234678E1	3,468000174E0	8,560050011E0	3,373050213E0
3,608250923E1	3,693000078E0	8,418000221E0	3,469050169E0
3,610267176E1	3,958950281E0	8,031000137E0	3,274950266E0
3,612283423E1	3,514050245E0	8,418000221E0	3,435000181E0
3,614299692E1	2,779050112E0	9,139050484E0	3,580950260E0
3,616315914E1	2,989050150E0	8,725049973E0	3,112050056E0
3,618332158E1	3,841950178E0	7,189950466E0	3,037950039E0
3,620348436E1	3,741000175E0	7,156950474E0	3,379950047E0
3,622364682E1	2,163000107E0	9,131999969E0	4,651950359E0
3,624380929E1	1,612950087E0	9,924000740E0	5,110950470E0
3,626397197E1	3,255000114E0	8,715000153E0	3,639000177E0
3,628413444E1	3,423000097E0	9,249000549E0	3,088050127E0
3,630429697E1	3,592950106E0	8,983050346E0	3,310950041E0
3,632445940E1	4,455000401E0	7,417950153E0	3,691950083E0
3,634462210E1	4,299000263E0	7,528050423E0	4,017000198E0
3,636478457E1	3,231000185E0	8,038050652E0	4,956000328E0
3,638494731E1	3,076050043E0	8,080950737E0	5,044050217E0
3,640510956E1	2,748000145E0	8,446949959E0	3,835050106E0
3,642527226E1	2,625000238E0	8,605050087E0	2,985000134E0
3,644543479E1	2,725950241E0	8,926050186E0	2,691000223E0
3,646559727E1	2,620950222E0	9,084000587E0	3,450000048E0
3,648576004E1	3,198000193E0	8,373000145E0	3,519000053E0
3,650592246E1	3,523050070E0	8,032950401E0	2,992050171E0
3,652608499E1	3,238050222E0	8,006999969E0	3,505050182E0
3,654624768E1	3,468000174E0	7,690950394E0	3,418950081E0
3,656641015E1	3,586050272E0	7,723950386E0	2,845950127E0
3,658657258E1	3,094950199E0	8,650950432E0	2,820000172E0
3,660673511E1	2,803050041E0	9,201000214E0	3,555000067E0
3,662689780E1	3,118950129E0	9,220050812E0	3,160050154E0
3,664706026E1	3,672000170E0	8,766000748E0	3,103050232E0
3,666722280E1	3,861000299E0	8,406000137E0	3,304050207E0
3,668738525E1	4,085999966E0	7,983000278E0	3,684000254E0
3,670754797E1	4,299000263E0	7,801050186E0	3,471000195E0
3,672771049E1	4,096050262E0	8,275050163E0	3,280050039E0
3,674787288E1	3,978000164E0	8,703000069E0	2,995050192E0
3,676803568E1	3,781950235E0	9,249000549E0	2,746050119E0
3,678819814E1	3,562050104E0	9,426000595E0	2,881950140E0
3,680836062E1	3,937050104E0	8,638950348E0	2,539950132E0
3,682852317E1	3,978000164E0	8,224050522E0	2,455950022E0
3,684868587E1	3,508950233E0	8,140950203E0	3,423000097E0
3,686884841E1	3,223950148E0	7,948950291E0	3,972000122E0
3,688901083E1	3,423000097E0	7,755000591E0	4,185000420E0
3,690917351E1	3,162000179E0	8,314949989E0	4,161000252E0
3,692933574E1	2,503050089E0	9,199050903E0	3,658050060E0
3,694949853E1	3,403950214E0	8,584050179E0	3,124050140E0
3,696966100E1	3,532950163E0	8,425950050E0	3,310950041E0
3,698982370E1	3,805950165E0	8,071050644E0	3,238950253E0
3,700998614E1	3,766950130E0	8,071050644E0	2,868000031E0
3,703014868E1	3,430050135E0	8,164950371E0	3,447000265E0
3,705031135E1	3,495000124E0	8,248050690E0	3,439950228E0
3,707047380E1	3,934950113E0	8,104949951E0	3,346950054E0
3,709063635E1	4,138950348E0	7,927950382E0	2,739000082E0
3,711079882E1	3,976050138E0	7,899000168E0	2,932950258E0
3,713096130E1	3,109050035E0	8,742000580E0	3,433050156E0
3,715112377E1	2,593950033E0	9,177000046E0	4,077000141E0
3,717128648E1	2,797950029E0	9,097949982E0	3,735000134E0
3,719144902E1	3,253050089E0	8,932950020E0	3,499950171E0
3,721161148E1	3,760050297E0	8,551950455E0	3,190950155E0
3,723177416E1	4,392000198E0	7,899000168E0	3,130950212E0
3,725193670E1	4,036050320E0	7,795950413E0	3,604950190E0
3,727209916E1	2,854950190E0	8,526000023E0	3,775050163E0
3,729226164E1	2,347950220E0	8,848950386E0	4,186950207E0
3,731242434E1	2,860050201E0	8,476050377E0	2,959050179E0
3,733258679E1	3,466050148E0	8,149950027E0	3,129000187E0
3,735274930E1	3,757950068E0	7,849050522E0	3,712950230E0
3,737291198E1	3,504000187E0	7,980000496E0	3,379950047E0
3,739307442E1	2,953050137E0	8,265000343E0	3,367950201E0
3,741323698E1	2,665950060E0	8,701050758E0	3,565050125E0
3,743339942E1	2,545950174E0	9,103050232E0	3,307950258E0
3,745356209E1	3,195000172E0	8,959050179E0	3,454050064E0
3,747372461E1	3,685950279E0	8,833050728E0	3,331950188E0
3,749388706E1	3,661950111E0	8,766000748E0	3,598050117E0
3,751404952E1	3,729000092E0	8,454000473E0	3,282000065E0
3,753421222E1	3,805950165E0	8,260050774E0	3,114000082E0
3,755437476E1	3,529950142E0	8,347050667E0	3,651000261E0
3,757453725E1	3,535050154E0	8,260050774E0	4,084050179E0
3,759469973E1	3,604950190E0	8,476050377E0	3,696000099E0
3,761486249E1	3,877950191E0	8,329950333E0	4,054950237E0
3,763502494E1	3,693000078E0	8,631000519E0	3,061950207E0
3,765518740E1	3,577950239E0	8,730000496E0	2,509050131E0
3,767535013E1	2,521950006E0	9,249000549E0	3,021000147E0
3,769551257E1	2,758950233E0	8,980950356E0	3,483000278E0
3,771567513E1	3,435000181E0	8,539950371E0	3,808950186E0
3,773583783E1	4,072050095E0	8,374950409E0	3,373050213E0
3,775600031E1	4,279950142E0	8,381999969E0	3,847050190E0
3,777616284E1	4,333050251E0	8,490000725E0	3,634050131E0
3,779632531E1	4,009050369E0	8,749050140E0	3,304050207E0
3,781648800E1	3,805950165E0	8,710050583E0	3,313050270E0
3,783665054E1	3,066000223E0	9,252000809E0	3,210000038E0
3,785681298E1	3,243000269E0	9,046050072E0	3,531000137E0
3,787697569E1	3,942000151E0	8,169000626E0	3,234000206E0
3,789713820E1	3,796050072E0	8,157000542E0	3,244050264E0
3,791730066E1	3,247950077E0	8,470950127E0	3,442050219E0
3,793746333E1	3,334050179E0	8,176950455E0	2,944050074E0
3,795762581E1	3,091950178E0	8,200050354E0	2,809950113E0
3,797778832E1	2,518050194E0	8,904000282E0	3,298950195E0
3,799795080E1	2,877000093E0	8,706000328E0	3,064050198E0
3,801811350E1	3,387000084E0	8,019000053E0	2,679000139E0
3,803827597E1	3,649950266E0	7,911000252E0	3,292050123E0
3,805843840E1	3,061050177E0	8,563950539E0	3,628950119E0
3,807860092E1	2,949000120E0	8,610000610E0	3,459000111E0
3,809876360E1	3,255000114E0	8,529000282E0	3,181950092E0
3,811892604E1	2,881950140E0	9,088950157E0	3,601050138E0
3,813908860E1	2,665950060E0	9,582000732E0	3,595950127E0
3,815925105E1	3,193050146E0	9,340050697E0	3,129000187E0
3,817941376E1	3,382050276E0	9,133950233E0	3,190950155E0
3,819957629E1	3,696000099E0	8,916000366E0	2,920950174E0
3,821973876E1	3,648000240E0	8,775000572E0	2,976000071E0
3,823990146E1	3,427050114E0	8,482950211E0	3,129000187E0
3,826006401E1	3,394050121E0	8,209950447E0	3,375000238E0
3,828022652E1	3,145050049E0	8,428050041E0	3,387000084E0
3,830038901E1	3,019950151E0	8,779950142E0	3,220050097E0
3,832055173E1	3,370050192E0	8,677050591E0	2,359950066E0
3,834071430E1	3,619050264E0	8,329950333E0	2,491950035E0
3,836087679E1	3,138000250E0	8,308050156E0	2,893950224E0
3,838103945E1	2,755050182E0	8,113950729E0	3,294000149E0
3,840120192E1	2,131950140E0	8,446949959E0	3,687000275E0
3,842136445E1	1,600950122E0	9,094050407E0	4,099050045E0
3,844152712E1	1,792050123E0	8,899950027E0	3,964050293E0
3,846168965E1	2,740050077E0	8,569050789E0	3,567000151E0
3,848185211E1	2,677950144E0	9,156000137E0	3,498000145E0
3,850201477E1	2,874000072E0	9,168000221E0	3,399000168E0
3,852217721E1	3,472950220E0	9,010050774E0	2,772000074E0
3,854233972E1	3,552000284E0	8,995050430E0	3,229050159E0
3,856250241E1	3,643050194E0	8,833050728E0	3,559950113E0
3,858266487E1	4,231950283E0	8,442000389E0	3,411000252E0
3,860282741E1	4,558050156E0	8,068950653E0	2,344050169E0
3,862298985E1	3,904050112E0	8,374950409E0	2,358000040E0
3,864315254E1	3,054000139E0	8,605050087E0	3,495000124E0
3,866331500E1	2,683050156E0	8,623950005E0	3,184050083E0
3,868347747E1	2,173050165E0	9,027000427E0	2,941950083E0
3,870364001E1	2,347950220E0	8,968950272E0	3,148050070E0
3,872380271E1	3,253050089E0	8,542950630E0	3,250950098E0
3,874396517E1	3,648000240E0	8,671950340E0	3,415950060E0
3,876412770E1	3,661950111E0	9,034049988E0	3,358950138E0
3,878429017E1	3,085050106E0	9,606000900E0	3,154950142E0
3,880445287E1	2,961000204E0	9,598950386E0	2,935050249E0
3,882461534E1	3,640950203E0	8,653050423E0	2,539950132E0
3,884477790E1	4,335000038E0	7,717050552E0	2,374950171E0
3,886494035E1	3,316950083E0	8,551950455E0	3,294000149E0
3,888510304E1	2,475000143E0	9,177000046E0	3,885000229E0
3,890526559E1	2,788050175E0	8,655000687E0	3,780000210E0
3,892542804E1	3,193050146E0	8,655000687E0	2,820000172E0
3,894559072E1	2,884050131E0	9,003000259E0	2,353049994E0
3,896575318E1	2,821950197E0	8,971050262E0	2,176050186E0
3,898591573E1	2,953050137E0	9,103050232E0	2,341050148E0
3,900607821E1	2,764050245E0	9,264000893E0	2,908950090E0
3,902624089E1	3,094950199E0	8,976000786E0	2,245050192E0
3,904640344E1	3,483000278E0	8,848950386E0	1,929000139E0
3,906656590E1	3,271950245E0	9,156000137E0	2,245050192E0
3,908672861E1	3,471000195E0	8,859000206E0	2,656950235E0
3,910689106E1	3,717000246E0	8,967000008E0	2,391000032E0
3,912705351E1	3,061050177E0	9,565050125E0	2,362950087E0
3,914721628E1	2,833950043E0	9,922050476E0	2,206950188E0
3,916737873E1	3,283950090E0	9,433950424E0	1,996050119E0
3,918754117E1	3,906000137E0	8,389950752E0	1,783050060E0
3,920770369E1	3,562050104E0	8,185950279E0	2,314950228E0
3,922786639E1	2,697000027E0	8,341950417E0	3,022950172E0
3,924802892E1	1,825950146E0	8,890050888E0	3,664950132E0
3,926819137E1	1,798950076E0	9,193950653E0	3,334950209E0
3,928835408E1	2,106000185E0	9,337950706E0	2,911050081E0
3,930851655E1	2,956050158E0	9,343050003E0	2,197050095E0
3,932867908E1	3,250050068E0	9,283050537E0	2,209050179E0
3,934884157E1	3,394050121E0	8,926050186E0	2,695050240E0
3,936900424E1	3,484950066E0	8,509050369E0	2,638050079E0
3,938916671E1	3,210000038E0	8,397000313E0	2,917950153E0
3,940932924E1	3,552000284E0	8,098050117E0	2,875050068E0
3,942949193E1	3,553950071E0	8,265000343E0	2,287950039E0
3,944965448E1	3,358050108E0	8,293950081E0	2,358000040E0
3,946981719E1	3,459000111E0	8,404050827E0	2,353049994E0
3,948997967E1	3,448950052E0	8,971050262E0	2,502000093E0
3,951014222E1	3,432000160E0	9,525000572E0	2,212050200E0
3,953030466E1	3,588000059E0	9,595950127E0	1,587000132E0
3,955046738E1	4,276950359E0	8,623950005E0	1,549050093E0
3,957062983E1	4,462050438E0	8,410950661E0	2,142000198E0
3,959079228E1	4,021049976E0	8,587950706E0	2,527950048E0
3,961095481E1	4,153050423E0	8,497050285E0	2,415000200E0
3,963111730E1	3,088050127E0	9,141000748E0	2,154000044E0
3,965127977E1	2,653950214E0	9,442950249E0	1,783050060E0
3,967144248E1	3,247950077E0	8,968950272E0	2,142000198E0
3,969160500E1	3,705000162E0	8,454000473E0	2,502000093E0
3,971176766E1	3,535050154E0	8,650950432E0	2,262000084E0
3,973193010E1	3,190050125E0	8,584050179E0	2,530050039E0
3,975209263E1	3,126000166E0	8,268000603E0	2,833950043E0
3,977225533E1	3,123000145E0	8,107049942E0	2,355000019E0
3,979241780E1	2,968050241E0	8,557050705E0	2,194950104E0
3,981258036E1	2,521950006E0	9,321000099E0	2,029950142E0
3,983274283E1	2,434050083E0	9,769050598E0	2,209050179E0
3,985290552E1	3,241050243E0	9,345000267E0	2,607000113E0
3,987306799E1	3,949050188E0	8,835000038E0	1,963050127E0
3,989323054E1	4,612950325E0	8,125950813E0	1,279950023E0
3,991339302E1	4,107000351E0	7,822050571E0	1,980000138E0
3,993355573E1	3,175950050E0	8,344050407E0	3,220050097E0
3,995371818E1	2,512950182E0	9,015000343E0	2,230950117E0
3,997388072E1	1,993050098E0	9,388050079E0	2,287950039E0
3,999404318E1	2,520000219E0	9,175050735E0	2,260050058E0
4,001420586E1	3,006000042E0	8,866050720E0	1,788000107E0
4,003436839E1	3,777000189E0	8,173950195E0	1,671000123E0
4,005453107E1	3,304950237E0	8,454000473E0	1,783050060E0
4,007469354E1	2,412000179E0	9,121950150E0	2,266950130E0
4,009485606E1	2,350050211E0	9,352050781E0	2,344050169E0
4,011501872E1	2,956050158E0	9,127050400E0	2,170950174E0
4,013518118E1	3,280950069E0	9,121950150E0	2,140050173E0
4,015534372E1	3,660000086E0	8,920950890E0	2,715000153E0
4,017550618E1	3,825000286E0	8,671950340E0	2,848950148E0
4,019566886E1	3,412950277E0	8,749050140E0	3,153000116E0
4,021583132E1	2,800050020E0	9,247050285E0	3,079050064E0
4,023599386E1	2,464950085E0	9,319050789E0	2,188050032E0
4,025615656E1	2,671050072E0	9,094050407E0	2,213999987E0
4,027631901E1	2,932050228E0	8,887950897E0	2,059050083E0
4,029648147E1	2,950950146E0	8,773050308E0	2,518050194E0
4,031664399E1	3,016050100E0	8,833050728E0	3,067050219E0
4,033680676E1	3,496950150E0	8,638950348E0	2,863050222E0
4,035696916E1	3,592950106E0	8,587950706E0	3,088050127E0
4,037713170E1	3,600000143E0	8,710050583E0	2,688000202E0
4,039729448E1	3,279000044E0	9,131999969E0	2,992050171E0
4,041745687E1	3,091950178E0	9,577050209E0	3,282000065E0
4,043761941E1	3,310050249E0	9,088950157E0	2,545050144E0
4,045778212E1	3,372000217E0	8,368050575E0	2,101950169E0
4,047794459E1	3,253050089E0	7,867950439E0	1,929000139E0
4,049810713E1	3,042000055E0	7,884000301E0	2,248050213E0
4,051826959E1	3,004050255E0	8,335050583E0	2,413050175E0
4,053843204E1	2,805000067E0	8,767950058E0	2,929950237E0
4,055859482E1	2,932050228E0	9,024000168E0	2,953950167E0
4,057875725E1	3,267000198E0	9,241950035E0	2,830050230E0
4,059891995E1	3,391950130E0	9,460050583E0	2,334000111E0
4,061908239E1	3,616950274E0	9,261000633E0	1,948050141E0
4,063924485E1	3,757950068E0	9,211050034E0	1,840950131E0
4,065940738E1	3,301050186E0	9,433950424E0	1,750050068E0
4,067957007E1	3,183000088E0	9,285000801E0	2,317050219E0
4,069973255E1	3,268950224E0	9,184950829E0	2,200050116E0
4,071989508E1	3,504000187E0	9,148950577E0	1,723050117E0
4,074005755E1	4,291950226E0	8,701050758E0	1,777950048E0
4,076022024E1	4,492950439E0	8,657999992E0	1,731000066E0
4,078038276E1	4,264950275E0	8,718000412E0	2,061000109E0
4,080054524E1	4,225049973E0	8,256000519E0	2,044049978E0
4,082070795E1	4,167000294E0	8,026050568E0	1,941000104E0
4,084087041E1	3,334050179E0	8,754000664E0	1,834050059E0
4,086103298E1	2,794950247E0	8,899950027E0	1,932000041E0
4,088119567E1	2,925000191E0	8,416049957E0	2,245050192E0
4,090135813E1	3,046950102E0	8,526000023E0	1,600950122E0
4,092152070E1	2,848050117E0	8,944950104E0	1,771050096E0
4,094168336E1	2,448000193E0	9,369000435E0	2,524950027E0
4,096184591E1	2,463000059E0	9,879000664E0	3,514050245E0
4,098200837E1	3,054000139E0	9,750000000E0	3,535950184E0
4,100217106E1	3,925950289E0	8,818050385E0	3,154950142E0
4,102233352E1	4,455000401E0	8,287050247E0	2,370000124E0
4,104249602E1	4,190999985E0	8,401950836E0	1,893000126E0
4,106265870E1	3,604950190E0	8,976000786E0	2,494050026E0
4,108282118E1	3,102000237E0	9,601050377E0	2,797950029E0
4,110298370E1	3,490050077E0	9,405000687E0	2,041949987E0
4,112314616E1	3,913950205E0	9,570000648E0	1,431000113E0
4,114330863E1	4,348950386E0	9,124950409E0	1,189050078E0
4,116347128E1	4,852050304E0	7,849050522E0	1,516950130E0
4,118363377E1	4,291950226E0	7,735950470E0	2,332050085E0
4,120379631E1	3,123000145E0	8,713050842E0	3,169950247E0
4,122395899E1	2,713950157E0	9,247050285E0	3,319950104E0
4,124412154E1	3,169050217E0	9,129000664E0	2,854050159E0
4,126428393E1	3,471000195E0	8,896950722E0	1,957950115E0
4,128444646E1	3,586050272E0	8,830050468E0	1,708950043E0
4,130460894E1	3,460950136E0	8,550000191E0	2,575950146E0
4,132477162E1	3,532950163E0	8,679000854E0	2,983050108E0
4,134493416E1	3,430050135E0	9,223050117E0	3,261000156E0
4,136509662E1	3,612000227E0	9,333000183E0	3,415950060E0
4,138525938E1	3,814950228E0	9,352050781E0	3,433050156E0
4,140542184E1	4,467000008E0	8,775000572E0	2,937000036E0
4,142558431E1	4,656000137E0	8,256000519E0	2,359950066E0
4,144574701E1	4,394999981E0	8,209950447E0	2,269050121E0
4,146590960E1	3,052050114E0	8,892000198E0	2,848950148E0
4,148607207E1	2,716050148E0	8,794050217E0	2,908950090E0
4,150623475E1	2,659050226E0	8,782050133E0	3,064050198E0
4,152639729E1	2,889000177E0	8,863950729E0	3,202950239E0
4,154655977E1	3,183000088E0	8,694000244E0	3,877950191E0
4,156672223E1	3,529950142E0	8,433000565E0	3,394950151E0
4,158688470E1	3,123000145E0	8,253000259E0	3,433050156E0
4,160704771E1	2,533950090E0	8,406000137E0	3,972000122E0
4,162720995E1	2,335950136E0	8,397000313E0	3,957000256E0
4,164737265E1	2,647050142E0	8,212050438E0	3,340050220E0
4,166753509E1	2,764050245E0	8,185950279E0	3,145950079E0
4,168769759E1	2,922000170E0	8,265000343E0	3,553050280E0
4,170786006E1	2,635050058E0	8,991000175E0	3,583950281E0
4,172802276E1	2,695050240E0	9,417000771E0	3,397050142E0
4,174818522E1	3,187950134E0	8,995050430E0	2,367000103E0
4,176834773E1	3,526050091E0	8,572050095E0	2,049000025E0
4,178851040E1	2,869950056E0	9,007050514E0	3,150000095E0
4,180867297E1	2,958000183E0	8,911950111E0	3,876000166E0
4,182883536E1	3,451050282E0	8,737050056E0	3,499950171E0
4,184899810E1	2,932050228E0	9,559950829E0	3,784950256E0
4,186916059E1	2,953050137E0	9,796950340E0	4,099050045E0
4,188932306E1	3,778950214E0	8,794050217E0	3,213000059E0
4,190948584E1	3,937050104E0	8,335050583E0	2,668950081E0
4,192964832E1	3,528000116E0	8,428050041E0	2,875050068E0
4,194981108E1	3,058950186E0	8,614950180E0	3,258000135E0
4,196997353E1	2,920050144E0	9,175050735E0	2,899050236E0
4,199013598E1	3,102000237E0	9,316050529E0	1,929000139E0
4,201029854E1	4,069050312E0	8,526000023E0	1,089000106E0
4,203046101E1	4,111950397E0	8,305950165E0	3,949500322E-1
4,205062369E1	3,097050190E0	8,923950195E0	1,486050129E0
4,207078614E1	2,533950090E0	9,295050621E0	2,371950150E0
4,209094858E1	3,327000141E0	8,758049965E0	2,635950089E0
4,211111112E1	3,805950165E0	8,530950546E0	2,121000051E0
4,213127358E1	3,696000099E0	8,657999992E0	2,013000011E0
4,215143626E1	3,949050188E0	8,548050880E0	2,032050133E0
4,217159880E1	3,514050245E0	9,004950523E0	1,999050140E0
4,219176127E1	2,890950203E0	9,316050529E0	2,901000023E0
4,221192398E1	2,697000027E0	9,346950531E0	3,073950052E0
4,223208652E1	3,346050262E0	8,758049965E0	2,206950188E0
4,225224898E1	4,006950378E0	8,359050751E0	1,438050032E0
4,227241169E1	4,249050140E0	8,076000214E0	1,411950111E0
4,229257416E1	3,327000141E0	8,848950386E0	2,587950230E0
4,231273671E1	2,575050116E0	9,658950806E0	2,620950222E0
4,233289916E1	2,613000154E0	9,424050331E0	1,615950108E0
4,235306188E1	3,052050114E0	9,060000420E0	1,065000057E0
4,237322441E1	2,860050201E0	9,376049995E0	2,224050045E0
4,239338687E1	2,845950127E0	9,501000404E0	3,322950125E0
4,241354955E1	2,980050087E0	9,156000137E0	3,682050228E0
4,243371200E1	3,219000101E0	8,887950897E0	2,913000107E0
4,245387454E1	2,949000120E0	8,767950058E0	2,827050209E0
4,247403699E1	3,162000179E0	8,674950600E0	2,566050053E0
4,249419972E1	3,106950045E0	8,605050087E0	1,852950096E0
4,251436222E1	2,475000143E0	8,947950363E0	2,287950039E0
4,253452489E1	2,041050196E0	9,501000404E0	2,542050123E0
4,255468734E1	2,245050192E0	9,646950722E0	1,872000098E0
4,257484979E1	3,049050093E0	9,252000809E0	2,080049992E0
4,259501232E1	3,837000132E0	8,140950203E0	1,467000127E0
4,261517499E1	3,765000105E0	8,124000549E0	2,656950235E0
4,263533748E1	2,635050058E0	9,390000343E0	3,270000219E0
4,265550002E1	2,282999992E0	9,601050377E0	3,061950207E0
4,267566245E1	3,408000231E0	8,847000122E0	2,557050228E0
4,269582516E1	3,279000044E0	9,310950279E0	2,466000080E0
4,271598770E1	3,127950191E0	9,328050613E0	2,059050083E0
4,273615041E1	3,868050098E0	8,598000526E0	1,351950049E0
4,275631288E1	3,052050114E0	9,055050850E0	1,266000032E0
4,277647535E1	2,656950235E0	9,049950600E0	2,185050011E0
4,279663790E1	2,794950247E0	9,288000107E0	2,200050116E0
4,281680036E1	2,944050074E0	9,225000381E0	1,897950053E0
4,283696313E1	3,628950119E0	8,521050453E0	1,101000071E0
4,285712559E1	3,657000065E0	7,975050449E0	1,623000026E0
4,287728805E1	2,973000050E0	8,566950798E0	1,575000048E0
4,289745082E1	2,551050186E0	9,424050331E0	2,413050175E0
4,291761323E1	2,647050142E0	9,958050728E0	1,671000123E0
4,293777569E1	3,844050169E0	9,241950035E0	-1,720500141E-1
4,295793824E1	5,046000004E0	8,596050262E0	-2,097000122E0
4,297810093E1	4,524000168E0	8,964000702E0	-1,438050032E0
4,299826339E1	3,631050110E0	9,189000130E0	1,500000060E-1
4,301842590E1	2,824050188E0	9,508050919E0	1,893000126E0
4,303858859E1	2,475000143E0	9,781050682E0	2,169000149E0
4,305875106E1	3,090000153E0	8,923950195E0	1,822050095E0
4,307891358E1	3,280950069E0	8,860950470E0	1,302000046E0
4,309907626E1	3,363000154E0	8,779950142E0	8,809500337E-1
4,311923870E1	3,693000078E0	8,554950714E0	1,294950008E0
4,313940124E1	3,700050116E0	8,887950897E0	1,585050106E0
4,315956371E1	3,439050198E0	9,654000282E0	2,074949980E0
4,317972617E1	3,360000134E0	9,769050598E0	1,336050034E0
