"Time (s)"	"Gyroscope x (rad/s)"	"Gyroscope y (rad/s)"	"Gyroscope z (rad/s)"
8,234895200E-2	-3,808749914E-1	-2,890250087E-1	7,232499868E-2
1,025114140E-1	-2,903999984E-1	-3,581874967E-1	1,574375033E-1
1,226738790E-1	-2,499749959E-1	-3,007124960E-1	2,234375030E-1
1,428361110E-1	-2,169750035E-1	-2,304500043E-1	2,915000021E-1
1,629985630E-1	-2,616625130E-1	-1,208624989E-1	2,851749957E-1
1,831609610E-1	-3,244999945E-1	-6,875000149E-2	2,138125002E-1
2,033233950E-1	-3,447124958E-1	-7,081250101E-2	1,722874939E-1
2,234859230E-1	-3,606624901E-1	-9,955000132E-2	1,297999918E-1
2,436480640E-1	-3,265624940E-1	-5,912499875E-2	6,173750013E-2
2,638105240E-1	-2,744500041E-1	-1,368124932E-1	1,594999991E-2
2,839729680E-1	-2,796750069E-1	-2,475000024E-1	2,969999984E-2
3,041354710E-1	-3,712500036E-1	-2,230249941E-1	9,459999949E-2
3,242979030E-1	-4,298250079E-1	-1,920875013E-1	1,383250058E-1
3,444603980E-1	-3,946250081E-1	-2,070749998E-1	1,170125008E-1
3,646228650E-1	-3,564000130E-1	-2,697750032E-1	4,675000161E-2
3,847855470E-1	-2,307250053E-1	-2,890250087E-1	-3,203750029E-2
4,049477010E-1	-1,786125004E-1	-3,177624941E-1	-6,393750012E-2
4,251102270E-1	-3,148750067E-1	-3,889875114E-1	-3,616249934E-2
4,452726210E-1	-6,862624884E-1	-5,295125246E-1	-5,115000159E-2
4,654351480E-1	-9,278500080E-1	-6,125624776E-1	-6,710000336E-2
4,855975080E-1	-1,039637446E0	-6,635749936E-1	-1,011999995E-1
5,057597130E-1	-9,543874860E-1	-6,061000228E-1	-1,266375035E-1
5,259224190E-1	-6,341499686E-1	-4,603500068E-1	-1,203124970E-1
5,460848700E-1	-2,551999986E-1	-2,304500043E-1	-6,916250288E-2
5,662470790E-1	-9,487500414E-3	5,774999969E-3	3,299999982E-2
5,864095820E-1	1,023000032E-1	8,992499858E-2	8,717499673E-2
6,065722980E-1	1,512500048E-1	1,281500012E-1	3,726249933E-2
6,267345520E-1	1,119249985E-1	2,612499986E-3	-4,468749836E-2
6,468970330E-1	8,524999768E-2	-6,764999777E-2	-2,447500080E-2
6,670594420E-1	3,533750027E-2	-1,127499994E-2	-1,099999994E-3
6,872218890E-1	-9,776250273E-2	6,324999779E-2	-3,616249934E-2
7,073843570E-1	-2,754124999E-1	1,249874979E-1	-2,667500079E-2
7,275466120E-1	-4,053499997E-1	9,088750184E-2	2,653750032E-2
7,477093030E-1	-4,393124878E-1	1,539999992E-2	3,616249934E-2
7,678715240E-1	-2,776125073E-1	-6,118749827E-2	3,726249933E-2
7,880340200E-1	-6,270000339E-2	-7,727500051E-2	7,232499868E-2
8,081964760E-1	1,321374923E-1	3,877500072E-2	9,569999576E-2
8,283589190E-1	1,660999954E-1	1,303499937E-1	1,308999956E-1
8,485213760E-1	4,372499883E-2	7,383749634E-2	1,351625025E-1
8,686837310E-1	-1,435499936E-1	-1,869999990E-2	3,299999982E-2
8,888462890E-1	-2,637250125E-1	-1,507000029E-1	-8,511249721E-2
9,090086940E-1	-3,404499888E-1	-1,911250055E-1	-1,575749964E-1
9,291711690E-1	-3,425124884E-1	-1,484999955E-1	-1,277374923E-1
9,493336000E-1	-3,425124884E-1	-9,212499857E-2	5,224999972E-3
9,694960570E-1	-1,871374995E-1	5,692499876E-2	5,321250111E-2
9,896584950E-1	-4,028749838E-2	1,696749926E-1	1,704999991E-2
1,009820951E0	8,744999766E-2	2,633124888E-1	-1,388750039E-2
1,029983394E0	1,629374921E-1	3,569499850E-1	-9,624999948E-3
1,050145831E0	2,406249940E-1	3,548874855E-1	-9,047500044E-2
1,070308322E0	1,586750001E-1	2,165624946E-1	-2,096875012E-1
1,090470538E0	1,182499994E-2	1,036750004E-1	-2,905375063E-1
1,110632980E0	-9,487500414E-3	1,090374961E-1	-3,192749918E-1
1,130795381E0	1,086249948E-2	1,270499974E-1	-2,490125000E-1
1,150957831E0	-2,433750033E-2	1,143999994E-1	-4,895000160E-2
1,171120278E0	-5,513750017E-2	3,037374914E-1	1,223749965E-1
1,191282726E0	-7,328750193E-2	3,517250121E-1	1,606000066E-1
1,211444974E0	-7,644999772E-2	2,367749959E-1	6,916250288E-2
1,231607435E0	-1,062875018E-1	2,377374917E-1	-3,836249933E-2
1,251769887E0	-1,009249985E-1	2,781625092E-1	-1,160499975E-1
1,271932603E0	-6,187499966E-3	2,473624945E-1	-2,182125002E-1
1,292094829E0	1,534499973E-1	2,217874974E-1	-3,895374835E-1
1,312257195E0	1,544124931E-1	1,579875052E-1	-5,204374790E-1
1,332419646E0	9,061250091E-2	2,250874937E-1	-6,715499759E-1
1,352582123E0	1,924999990E-2	2,505249977E-1	-7,907624841E-1
1,372744593E0	-3,024999984E-3	1,728374958E-1	-8,269249797E-1
1,392906839E0	8,098749816E-2	4,619999975E-2	-5,682874918E-1
1,413069532E0	1,150875017E-1	8,937500417E-3	-2,745875120E-1
1,433231789E0	-1,044999994E-2	1,539999992E-2	-1,234750003E-1
1,453394260E0	-7,961250097E-2	-7,727500051E-2	-2,351249941E-2
1,473556751E0	-1,435499936E-1	-5,376249924E-2	-3,726249933E-2
1,493719238E0	-2,818749845E-1	-3,355000168E-2	-2,557500079E-2
1,513881693E0	-3,117125034E-1	8,772499859E-2	1,468500048E-1
1,534044173E0	-1,552374959E-1	1,303499937E-1	3,181749880E-1
1,554206569E0	5,128749833E-2	5,788749829E-2	3,511750102E-1
1,574369044E0	2,789874971E-1	-1,038125008E-1	3,639625013E-1
1,594531490E0	5,545374751E-1	-2,187625021E-1	3,267000020E-1
1,614693930E0	8,036875129E-1	-5,209875107E-1	2,915000021E-1
1,634856161E0	9,674500227E-1	-4,336749911E-1	6,696250290E-2
1,655018842E0	6,184750199E-1	-2,250874937E-1	-1,416250020E-1
1,675181299E0	5,077875257E-1	-2,890250087E-1	-4,688749835E-2
1,695343524E0	5,174124837E-1	-3,113000095E-1	4,152499884E-2
1,715505998E0	5,376250148E-1	-3,454000056E-1	1,106875017E-1
1,735668458E0	7,249000072E-1	-4,082374871E-1	1,926375031E-1
1,755830919E0	8,813750148E-1	-3,155624866E-1	1,861750036E-1
1,775993294E0	6,876375079E-1	-1,869999990E-2	3,079999983E-2
1,796155776E0	3,928374946E-1	4,097500071E-2	-2,873750031E-2
1,816318202E0	1,842499971E-1	-7,397499681E-2	-1,234750003E-1
1,836480730E0	1,321374923E-1	-2,847625017E-1	-2,085874975E-1
1,856642866E0	1,927749962E-1	-4,529249966E-1	-1,692624986E-1
1,876805531E0	2,693625093E-1	-5,433999896E-1	-7,672499865E-2
1,896967988E0	4,662624896E-1	-6,327750087E-1	-3,946249932E-2
1,917130192E0	6,791124940E-1	-7,944750190E-1	-9,473749995E-2
1,937292649E0	7,238000035E-1	-7,295749784E-1	-1,586750001E-1
1,957455115E0	6,386874914E-1	-2,463999987E-1	-5,431250110E-2
1,977617500E0	2,906749845E-1	1,313125044E-1	1,149500012E-1
1,997780038E0	-1,051874980E-1	9,088750184E-2	1,531749964E-1
2,017942409E0	-3,254624903E-1	-2,502499893E-2	2,468124926E-1
2,038104875E0	-3,339875042E-1	-1,729750037E-1	3,554374874E-1
2,058267341E0	-1,083500013E-1	-1,963499933E-1	3,628624976E-1
2,078429584E0	1,256749928E-1	-7,617499679E-2	2,213750035E-1
2,098592044E0	1,458874941E-1	1,058750004E-1	-2,777500078E-2
2,118754534E0	-4,661250114E-2	1,143999994E-1	-3,140499890E-1
2,138917014E0	-2,329249978E-1	7,809999585E-2	-4,703874886E-1
2,159079481E0	-3,319250047E-1	7,493750006E-2	-4,757499993E-1
2,179241961E0	-4,074124992E-1	2,818750031E-2	-3,352249861E-1
2,199404420E0	-3,510375023E-1	7,287500054E-2	-2,330625057E-1
2,219566818E0	-3,180375099E-1	5,788749829E-2	-4,042499885E-2
2,239729271E0	-1,913999915E-1	-5,912499968E-3	4,248749837E-2
2,259891736E0	-1,897500083E-2	-9,748750180E-2	2,062499989E-3
2,280054196E0	8,002500236E-2	-1,219625026E-1	-5,747500062E-2
2,300216439E0	1,023000032E-1	-3,781250119E-2	-9,267500043E-2
2,320378938E0	8,098749816E-2	2,612499986E-3	-3,409999982E-2
2,340541389E0	8,002500236E-2	-5,499999970E-4	2,543750033E-2
2,360703853E0	4,798749834E-2	-6,448750198E-2	8,195000142E-2
2,380866292E0	5,128749833E-2	-4,949999973E-2	8,291249722E-2
2,401028682E0	1,828750037E-2	-3,148749843E-2	1,911249943E-2
2,421191135E0	-4,881250113E-2	-2,928750031E-2	-5,541250110E-2
2,441353600E0	-9,033749998E-2	-2,928750031E-2	-8,841250092E-2
2,461516072E0	-8,813749999E-2	-6,118749827E-2	-8,731249720E-2
2,481678523E0	-9,776250273E-2	-2,296249941E-2	-2,667500079E-2
2,501840999E0	-1,051874980E-1	3,712499980E-3	3,396249935E-2
2,522003470E0	-1,615625024E-1	-1,223750040E-2	5,211250111E-2
2,542165932E0	-1,871374995E-1	7,974999957E-3	-2,199999988E-3
2,562328380E0	-1,552374959E-1	3,987500072E-2	-7,246249914E-2
2,582490600E0	-9,459999949E-2	3,561250120E-2	-1,256749928E-1
2,602653076E0	-5,843750015E-2	1,512499992E-3	-1,458874941E-1
2,622815529E0	-2,323750034E-2	2,818750031E-2	-5,967500061E-2
2,642977980E0	5,981250107E-2	7,919999957E-2	4,784999788E-2
2,663140370E0	8,744999766E-2	3,767500073E-2	5,321250111E-2
2,683302617E0	5,335000157E-2	-4,001250118E-2	2,337500080E-2
2,703465069E0	5,499999970E-3	-4,853750020E-2	-1,924999990E-2
2,723627804E0	8,662499487E-3	-6,971249729E-2	-4,798749834E-2
2,743790014E0	3,519999981E-2	-3,891250119E-2	-5,651250109E-2
2,763952491E0	2,351249941E-2	1,539999992E-2	-2,131249942E-2
2,784114928E0	-4,564999789E-2	7,177499682E-2	7,548750192E-2
2,804277375E0	-1,233374998E-1	8,236250281E-2	1,872749925E-1
2,824439832E0	-2,158749998E-1	7,713750005E-2	2,319625020E-1
2,844602221E0	-2,670249939E-1	3,024999984E-2	1,967625022E-1
2,864764659E0	-2,340250015E-1	-2,928750031E-2	1,244374961E-1
2,884927140E0	-1,328250021E-1	-3,671250120E-2	1,168750040E-2
2,905089597E0	-2,117500082E-2	-2,749999985E-3	-6,819999963E-2
2,925251829E0	9,803749621E-2	4,839999974E-2	-6,819999963E-2
2,945414267E0	1,171500012E-1	8,662500232E-2	-4,468749836E-2
2,965576755E0	6,613750011E-2	9,831249714E-2	1,278750040E-2
2,985739226E0	-4,564999789E-2	9,308750182E-2	4,042499885E-2
3,005901682E0	-2,138125002E-1	4,674999975E-3	6,324999966E-3
3,026064173E0	-3,350875080E-1	-5,499999970E-4	-2,557500079E-2
3,046226641E0	-3,447124958E-1	6,641250104E-2	-2,557500079E-2
3,066388992E0	-3,361875117E-1	4,097500071E-2	-5,431250110E-2
3,086551529E0	-3,553000093E-1	2,488750033E-2	-1,160499975E-1
3,106713913E0	-3,328875005E-1	4,936249927E-2	-1,245749965E-1
3,126876380E0	-2,264624983E-1	5,898749828E-2	-8,841250092E-2
3,147038817E0	-1,361249983E-1	1,966249943E-2	-8,195000142E-2
3,167201289E0	-8,497499675E-2	-1,464374959E-1	-1,245749965E-1
3,187363534E0	9,762499481E-3	-2,879250050E-1	-1,383250058E-1
3,207526016E0	5,224999785E-2	-5,018749833E-1	-2,043250054E-1
3,227688443E0	-6,682500243E-2	-7,924125195E-1	-2,341624945E-1
3,247850914E0	-1,787500083E-2	-5,198875070E-1	-6,916250288E-2
3,268013360E0	-6,187499966E-3	1,654125005E-1	4,331249893E-1
3,288175831E0	-1,897500083E-2	7,858124971E-1	8,949875236E-1
3,308338283E0	2,997500077E-2	1,052974939E0	7,768750191E-1
3,328500754E0	-8,813749999E-2	6,986374855E-1	1,457500011E-1
3,348663132E0	-3,606624901E-1	2,172499895E-2	-4,927999973E-1
3,368825581E0	-3,602499887E-2	-2,517625093E-1	-7,066124678E-1
3,388988053E0	4,204750061E-1	-3,539249897E-1	-4,735499918E-1
3,409150290E0	4,162124991E-1	-4,677749872E-1	-2,532750070E-1
3,429312751E0	2,033624947E-1	-4,677749872E-1	-1,798499972E-1
3,449475454E0	1,237499993E-3	-4,230875075E-1	-1,021625027E-1
3,469637932E0	-8,181250095E-2	-4,124999940E-1	3,932499886E-2
3,489800394E0	-9,666249901E-2	-3,559874892E-1	9,679999948E-2
3,509962840E0	-6,049999967E-2	-1,134374961E-1	6,489999592E-2
3,530125312E0	-5,513750017E-2	2,006125003E-1	-4,895000160E-2
3,550287538E0	3,299999982E-3	2,952125072E-1	-1,468500048E-1
3,570450004E0	3,739999980E-2	6,861250103E-2	-1,670625061E-1
3,590612471E0	1,924999990E-2	-1,687124968E-1	-1,234750003E-1
3,610774865E0	-7,287499961E-3	-2,176624984E-1	-9,363749623E-2
3,630937297E0	-4,991250113E-2	-7,727500051E-2	-3,093750030E-2
3,651099764E0	1,924999990E-2	1,036750004E-1	-1,168750040E-2
3,671261986E0	7,466249913E-2	2,484624982E-1	-3,299999982E-3
3,691424428E0	-1,040875018E-1	1,813624948E-1	3,616249934E-2
3,711586887E0	-2,967250049E-1	-3,148749843E-2	2,227500081E-2
3,731749353E0	-3,478749990E-1	-1,379124969E-1	1,594999991E-2
3,751911844E0	-2,084500045E-1	-4,207500070E-2	-1,388750039E-2
3,772074545E0	-1,786125004E-1	1,036750004E-1	-2,777500078E-2
3,792236771E0	-2,829749882E-1	3,671250120E-2	8,717499673E-2
3,812399142E0	-1,893374920E-1	-1,623875052E-1	2,638624907E-1
3,832561673E0	1,247124970E-1	-1,846625060E-1	3,532375097E-1
3,852724137E0	2,875125110E-1	-6,655000150E-2	2,829749882E-1
3,872886536E0	1,725624949E-1	-4,812499974E-3	1,511124969E-1
3,893048992E0	9,762499481E-3	2,282499894E-2	1,031249985E-1
3,913211469E0	-3,396249935E-2	6,861250103E-2	9,143749624E-2
3,933373920E0	4,056249931E-2	-1,649999991E-2	8,084999770E-2
3,953536375E0	1,011999995E-1	-1,143999994E-1	-1,168750040E-2
3,973698822E0	8,002500236E-2	-8,676250279E-2	-9,267500043E-2
3,993861284E0	-1,264999993E-2	-4,317500070E-2	-8,304999769E-2
4,014023767E0	-7,961250097E-2	-1,869999990E-2	-6,489999592E-2
4,034185992E0	-1,296624988E-1	1,649999991E-2	-5,857500061E-2
4,054348485E0	-5,087500066E-2	8,992499858E-2	5,211250111E-2
4,074510937E0	1,310375035E-1	1,515250057E-1	1,776500046E-1
4,094673380E0	1,406625062E-1	1,431374997E-1	2,425500005E-1
4,114835836E0	6,187500060E-2	1,047749966E-1	2,330625057E-1
4,134998215E0	-4,991250113E-2	8,882500231E-2	1,116499975E-1
4,155160742E0	-1,732500046E-1	8,456250280E-2	-1,594999991E-2
4,175323101E0	-1,765500009E-1	3,671250120E-2	-6,710000336E-2
4,195485566E0	-4,344999790E-2	2,914999984E-2	-5,224999785E-2
4,215648009E0	1,501500010E-1	3,561250120E-2	4,675000161E-2
4,235810458E0	2,758249938E-1	2,598750032E-2	1,106875017E-1
4,255972962E0	2,673000097E-1	2,612499986E-3	6,599999964E-2
4,276135424E0	1,065625027E-1	-1,223750040E-2	-2,447500080E-2
4,296297910E0	-3,286249936E-2	2,076249942E-2	-1,266375035E-1
4,316460391E0	-1,392875016E-1	-2,186249942E-2	-1,798499972E-1
4,336622852E0	-1,040875018E-1	1,512499992E-3	-1,288374960E-1
4,356785091E0	-1,154999994E-2	1,539999992E-2	-2,447500080E-2
4,376947538E0	1,924999990E-2	9,515000135E-2	5,211250111E-2
4,397110259E0	-8,813749999E-2	1,058750004E-1	8,401250094E-2
4,417272490E0	-1,775124967E-1	8,882500231E-2	7,658749819E-2
4,437434943E0	-1,572999954E-1	8,662500232E-2	4,248749837E-2
4,457597400E0	-9,982500225E-2	1,175625026E-1	-4,042499885E-2
4,477759841E0	-1,073874980E-1	9,418749809E-2	-9,157499671E-2
4,497922316E0	-1,168750003E-1	4,936249927E-2	-1,288374960E-1
4,518084778E0	-6,366249919E-2	6,324999779E-2	-1,373624951E-1
4,538247150E0	3,629999980E-2	2,282499894E-2	-1,223749965E-1
4,558409626E0	6,723749638E-2	2,914999984E-2	-6,819999963E-2
4,578572136E0	1,023000032E-1	8,566249907E-2	-6,710000336E-2
4,598734518E0	1,087625027E-1	9,831249714E-2	-5,321250111E-2
4,618896980E0	6,819999963E-2	1,388749927E-1	-4,372499883E-2
4,639059463E0	1,374999993E-4	1,196250021E-1	-3,299999982E-2
4,659221933E0	1,924999990E-2	4,097500071E-2	3,616249934E-2
4,679384385E0	1,267749965E-1	3,712499980E-3	7,026249915E-2
4,699546847E0	1,694000065E-1	-1,333750039E-2	3,932499886E-2
4,719709320E0	6,723749638E-2	3,671250120E-2	-3,836249933E-2
4,739871788E0	-4,138749838E-2	1,058750004E-1	-1,544124931E-1
4,760034012E0	-1,222374961E-1	1,366750002E-1	-2,256374955E-1
4,780196705E0	-1,637624949E-1	1,238875017E-1	-1,788875014E-1
4,800358939E0	-1,126125008E-1	1,016125008E-1	-1,095874980E-1
4,820521411E0	2,461249940E-2	1,512499992E-3	-3,616249934E-2
4,840684113E0	1,577125043E-1	3,135000169E-2	1,704999991E-2
4,860846337E0	1,577125043E-1	6,215000153E-2	-2,777500078E-2
4,881008770E0	9,487500042E-2	6,751249731E-2	-7,562500238E-2
4,901171228E0	-5,224999972E-3	-1,869999990E-2	-1,618375033E-1
4,921333688E0	-7,218749821E-2	-4,812499974E-3	-2,065249979E-1
4,941496361E0	-1,009249985E-1	-3,038750030E-2	-1,746249944E-1
4,961658823E0	-9,624999948E-4	-4,812499974E-3	-9,693749994E-2
4,981821284E0	3,849999979E-2	7,603749633E-2	7,342500240E-2
5,001983746E0	5,444999784E-2	5,156249925E-2	2,202749997E-1
5,022146203E0	-3,492499888E-2	4,936249927E-2	2,106499970E-1
5,042308673E0	-1,222374961E-1	9,088750184E-2	9,569999576E-2
5,062470909E0	-1,648624986E-1	7,067500055E-2	2,021249942E-2
5,082633594E0	-8,607500046E-2	7,974999957E-3	4,358749837E-2
5,102796044E0	1,332374960E-1	1,113750041E-2	7,864999771E-2
5,122958308E0	1,959374994E-1	-6,338749826E-2	1,244374961E-1
5,143120740E0	1,810874939E-1	-5,486249924E-2	7,768750191E-2
5,163283127E0	-3,918749839E-2	-6,971249729E-2	-6,283749640E-2
5,183445572E0	-2,371875048E-1	-4,743750021E-2	-1,777874976E-1
5,203608023E0	-2,861374915E-1	-1,443750039E-2	-1,479499936E-1
5,223770543E0	-1,626625061E-1	4,936249927E-2	-1,924999990E-2
5,243932941E0	2,254999988E-2	6,118749827E-2	7,026249915E-2
5,264095370E0	6,077500060E-2	1,319999993E-2	7,768750191E-2
5,284257832E0	6,819999963E-2	3,712499980E-3	2,763750032E-2
5,304420279E0	-5,513750017E-2	-7,012499962E-3	-8,195000142E-2
5,324582746E0	-1,413500011E-1	-5,279999971E-2	-1,064250022E-1
5,344744992E0	-6,366249919E-2	-4,853750020E-2	-7,342500240E-2
5,364907685E0	2,144999988E-2	-7,933750004E-2	-1,594999991E-2
5,385069904E0	5,224999785E-2	-3,464999795E-2	5,527500063E-2
5,405232390E0	7,356250286E-2	2,598750032E-2	1,192125008E-1
5,425394847E0	-4,124999978E-3	-1,759999990E-2	1,755875051E-1
5,445557309E0	3,299999982E-3	-1,017499994E-2	1,681624949E-1
5,465719976E0	-5,197500065E-2	-1,759999990E-2	7,452499866E-2
5,485882439E0	-4,455000162E-2	-2,296249941E-2	-3,726249933E-2
5,506044656E0	-3,286249936E-2	-3,575000167E-2	-1,245749965E-1
5,526207097E0	-1,471249945E-2	-1,443750039E-2	-1,618375033E-1
5,546369800E0	-1,581249945E-2	-1,443750039E-2	-1,544124931E-1
5,566532046E0	-1,361249946E-2	-1,979999989E-2	-7,452499866E-2
5,586694496E0	-4,344999790E-2	1,966249943E-2	2,131249942E-2
5,606856957E0	-1,190750003E-1	5,156249925E-2	1,058750041E-2
5,627019421E0	-1,680250019E-1	2,914999984E-2	-8,524999954E-3
5,647182111E0	-1,083500013E-1	1,539999992E-2	-3,093750030E-2
5,667344376E0	-1,137124971E-1	-6,338749826E-2	-6,173750013E-2
5,687506841E0	-6,476250291E-2	-7,191249728E-2	-4,688749835E-2
5,707669305E0	-2,639999986E-2	-1,979999989E-2	1,168750040E-2
5,727831779E0	2,034999989E-2	-1,127499994E-2	7,864999771E-2
5,747994240E0	2,254999988E-2	3,561250120E-2	1,830125004E-1
5,768156702E0	-9,776250273E-2	1,292500049E-1	2,468124926E-1
5,788319168E0	-1,020250022E-1	1,718750000E-1	1,702249944E-1
5,808481860E0	-1,073874980E-1	9,515000135E-2	7,452499866E-2
5,828644120E0	4,399999976E-3	6,118749827E-2	4,578749835E-2
5,848806552E0	1,427250057E-1	1,746249944E-2	3,932499886E-2
5,868969014E0	1,375000030E-1	-2,832499892E-2	4,895000160E-2
5,889131471E0	8,524999768E-2	5,774999969E-3	8,827500045E-2
5,909293928E0	4,399999976E-3	6,544999778E-2	7,122500241E-2
5,929456634E0	-1,154999994E-2	7,287500054E-2	1,704999991E-2
5,949619105E0	6,077500060E-2	1,101374999E-1	5,747500062E-2
5,969781552E0	1,512500048E-1	7,919999957E-2	1,989624947E-1
5,989944023E0	1,948374957E-1	8,566249907E-2	2,330625057E-1
6,010106245E0	1,182499975E-1	1,611499935E-1	1,234750003E-1
6,030268922E0	-2,007500082E-2	2,217874974E-1	3,616249934E-2
6,050431379E0	-4,235000163E-2	2,123000026E-1	-4,152499884E-2
6,070593838E0	-2,323750034E-2	1,355749965E-1	-8,511249721E-2
6,090756064E0	-6,159999967E-2	1,303499937E-1	-1,086250022E-1
6,110918538E0	-1,530375034E-1	2,089999914E-1	-1,168750040E-2
6,131081230E0	-1,913999915E-1	2,186249942E-1	1,010624990E-1
6,151243680E0	-1,275999993E-1	2,441999912E-1	1,468500048E-1
6,171406131E0	-2,433750033E-2	2,707374990E-1	9,569999576E-2
6,191568593E0	7,782500237E-2	1,739374995E-1	-5,321250111E-2
6,211731054E0	5,335000157E-2	1,420374960E-1	-2,139499933E-1
6,231893521E0	-1,765500009E-1	3,856875002E-1	-2,469500005E-1
6,252055973E0	-3,308250010E-1	4,602124989E-1	-8,415000141E-2
6,272218511E0	-2,915000021E-1	4,081000090E-1	6,916250288E-2
6,292380915E0	-2,222000062E-1	4,687374830E-1	1,340624988E-1
6,312543367E0	-8,923749626E-2	3,643749952E-1	1,648624986E-1
6,332705819E0	2,887500077E-2	1,856250018E-1	5,101250112E-2
6,352868286E0	-4,138749838E-2	2,419999987E-1	-1,086250022E-1
6,373030737E0	-1,157749966E-1	3,537875116E-1	-1,533125043E-1
6,393193214E0	-1,083500013E-1	2,271499932E-1	-1,095874980E-1
6,413355673E0	-3,286249936E-2	1,292500049E-1	-1,245749965E-1
6,433518123E0	6,599999964E-3	5,472499877E-2	-8,415000141E-2
6,453680644E0	5,761250108E-2	-3,575000167E-2	-8,098749816E-2
6,473843142E0	1,416250020E-1	-1,729750037E-1	-1,447875053E-1
6,494005592E0	2,161500007E-1	-3,305499852E-1	-2,011625022E-1
6,514168079E0	3,088249862E-1	-4,294124842E-1	-1,979999989E-1
6,534330541E0	2,193125039E-1	-2,890250087E-1	-1,979999989E-1
6,554493014E0	9,061250091E-2	-2,463999987E-1	-1,288374960E-1
6,574655496E0	7,576250285E-2	-3,240875006E-1	-4,262499884E-2
6,594817972E0	3,849999979E-2	-3,060750067E-1	-5,747500062E-2
6,614980435E0	-4,344999790E-2	-2,580874860E-1	-4,688749835E-2
6,635142897E0	4,399999976E-3	-2,176624984E-1	1,911249943E-2
6,655305343E0	7,039999962E-2	-7,727500051E-2	3,616249934E-2
6,675467791E0	8,524999768E-2	1,746249944E-2	5,211250111E-2
6,695630260E0	7,246249914E-2	-1,223750040E-2	1,287000030E-1
6,715792697E0	5,335000157E-2	2,612499986E-3	1,713249981E-1
6,735955159E0	2,144999988E-2	4,936249927E-2	2,171124965E-1
6,756117621E0	-5,623750016E-2	1,483625025E-1	1,926375031E-1
6,776280083E0	-1,233374998E-1	1,665125042E-1	6,489999592E-2
6,796442752E0	-7,108750194E-2	1,101374999E-1	-1,278750040E-2
6,816605219E0	7,356250286E-2	1,388749927E-1	3,162499983E-3
6,836767692E0	1,267749965E-1	1,016125008E-1	4,675000161E-2
6,856930170E0	9,267500043E-2	9,198749810E-2	3,932499886E-2
6,877092620E0	1,498750038E-2	9,831249714E-2	-3,616249934E-2
6,897255077E0	-2,007500082E-2	2,818750031E-2	-1,245749965E-1
6,917417532E0	-2,543750033E-2	-1,208624989E-1	-2,404875010E-1
6,937579995E0	-2,323750034E-2	-1,336500049E-1	-2,490125000E-1
6,957742530E0	-3,602499887E-2	4,124999978E-4	-2,096875012E-1
6,977904923E0	-4,661250114E-2	-1,553750038E-2	-1,809500009E-1
6,998067385E0	-4,881250113E-2	-3,781250119E-2	-1,000999957E-1
7,018229852E0	7,782500237E-2	6,957499683E-2	1,801249944E-2
7,038392319E0	1,842499971E-1	4,619999975E-2	7,424999960E-3
7,058554857E0	1,214125007E-1	-2,296249941E-2	-1,149500012E-1
7,078717226E0	2,034999989E-2	-3,781250119E-2	-2,182125002E-1
7,098879693E0	-9,129999578E-2	-7,301250100E-2	-2,065249979E-1
7,119042136E0	-1,073874980E-1	-5,486249924E-2	-6,283749640E-2
7,139204575E0	-4,881250113E-2	2,392499894E-2	1,468500048E-1
7,159367019E0	4,276249930E-2	1,636249945E-2	2,095499933E-1
7,179529502E0	-1,787500083E-2	4,509999976E-2	1,457500011E-1
7,199691954E0	-1,073874980E-1	1,398375034E-1	3,932499886E-2
7,219854492E0	-1,392875016E-1	1,324124932E-1	-4,262499977E-3
7,240016939E0	-1,243000031E-1	8,030000329E-2	1,911249943E-2
7,260179387E0	-7,108750194E-2	4,413750023E-2	6,696250290E-2
7,280341844E0	2,351249941E-2	3,712499980E-3	5,843750015E-2
7,300504242E0	2,461249940E-2	-4,097500071E-2	-2,983750030E-2
7,320666776E0	1,924999990E-2	-4,853750020E-2	-1,117874980E-1
7,340829222E0	1,292499993E-2	-7,617499679E-2	-1,777874976E-1
7,360991618E0	-4,124999978E-3	-1,325500011E-1	-1,958000064E-1
7,381154175E0	-6,476250291E-2	-4,317500070E-2	-1,373624951E-1
7,401316644E0	-1,126125008E-1	2,488750033E-2	-2,131249942E-2
7,421479327E0	-1,296624988E-1	3,671250120E-2	8,937499672E-2
7,441641789E0	-9,776250273E-2	3,671250120E-2	1,425874978E-1
7,461804235E0	-1,787500083E-2	1,966249943E-2	1,287000030E-1
7,481966692E0	1,828750037E-2	-1,979999989E-2	1,484999992E-2
7,502129163E0	1,608750038E-2	-6,022499874E-2	-1,288374960E-1
7,522291702E0	-4,344999790E-2	-1,027124971E-1	-2,096875012E-1
7,542454178E0	-5,623750016E-2	-1,208624989E-1	-1,639000028E-1
7,562616654E0	-9,624999948E-4	-7,727500051E-2	-6,393750012E-2
7,582779137E0	1,828750037E-2	-4,207500070E-2	1,058750041E-2
7,602941591E0	-1,471249945E-2	-1,553750038E-2	7,452499866E-2
7,623104024E0	-2,433750033E-2	5,774999969E-3	9,253749996E-2
7,643266443E0	-1,581249945E-2	-2,502499893E-2	6,916250288E-2
7,663428913E0	2,144999988E-2	-1,443750039E-2	4,675000161E-2
7,683591365E0	1,292499993E-2	-2,832499892E-2	2,969999984E-2
7,703753827E0	3,849999979E-2	-6,875000149E-2	2,021249942E-2
7,723916365E0	4,166249931E-2	-9,102500230E-2	3,506249934E-2
7,744078823E0	3,739999980E-2	-8,153750002E-2	2,653750032E-2
7,764241281E0	-3,918749839E-2	-7,933750004E-2	1,911249943E-2
7,784403766E0	-7,644999772E-2	-2,722499892E-2	6,270000339E-2
7,804566241E0	-1,083500013E-1	1,223750040E-2	8,195000142E-2
7,824728679E0	-9,776250273E-2	2,392499894E-2	7,452499866E-2
7,844891131E0	-7,287499961E-3	3,987500072E-2	2,969999984E-2
7,865053607E0	5,128749833E-2	3,561250120E-2	6,324999966E-3
7,885216055E0	6,187500060E-2	-2,749999985E-3	-1,099999994E-3
7,905378527E0	7,782500237E-2	-3,464999795E-2	1,484999992E-2
7,925540998E0	4,056249931E-2	-1,017499994E-2	-4,578749835E-2
7,945703697E0	-9,239999950E-2	-3,891250119E-2	-1,266375035E-1
7,965866236E0	-1,190750003E-1	-8,043749630E-2	-1,883749962E-1
7,986028616E0	-4,344999790E-2	-1,112374961E-1	-2,022625059E-1
8,006191082E0	2,351249941E-2	-1,410750002E-1	-1,670625061E-1
8,026353535E0	-7,287499961E-3	-9,528750181E-2	-9,267500043E-2
8,046515998E0	-6,682500243E-2	-3,671250120E-2	-4,895000160E-2
8,066678536E0	-1,615625024E-1	-6,228749827E-2	-4,798749834E-2
8,086841014E0	-2,179374993E-1	-6,764999777E-2	-5,747500062E-2
8,107003478E0	-2,255000025E-1	-3,355000168E-2	-6,173750013E-2
8,127165914E0	-2,147749960E-1	1,746249944E-2	-3,616249934E-2
8,147328612E0	-8,497499675E-2	4,303750023E-2	7,548750192E-2
8,167490824E0	1,402499992E-2	6,435000151E-2	1,841125041E-1
8,187653279E0	5,871250108E-2	5,472499877E-2	1,958000064E-1
8,207815748E0	-1,691249944E-2	4,936249927E-2	6,270000339E-2
8,227978226E0	-1,275999993E-1	5,774999969E-3	-1,075249985E-1
8,248140683E0	-1,743499935E-1	-8,359999955E-2	-2,395250052E-1
8,268303375E0	-1,009249985E-1	-1,655499935E-1	-2,362249941E-1
8,288465853E0	4,702499881E-2	-1,410750002E-1	-1,106875017E-1
8,308628380E0	1,002374962E-1	4,674999975E-3	1,168750040E-2
8,328790746E0	4,399999976E-3	8,882500231E-2	5,953750014E-2
8,348953204E0	-1,350249946E-1	5,582499877E-2	9,487500414E-3
8,369115746E0	-2,318249941E-1	-2,502499893E-2	-9,473749995E-2
8,389278131E0	-2,062499970E-1	-4,001250118E-2	-1,425874978E-1
8,409440664E0	-1,296624988E-1	-8,470000327E-2	-9,790000319E-2
8,429603111E0	-6,049999967E-2	-8,896250278E-2	-1,278750040E-2
8,449765812E0	-2,969999984E-2	-3,355000168E-2	6,916250288E-2
8,469928284E0	-8,387500420E-3	1,539999992E-2	8,291249722E-2
8,490090749E0	4,399999976E-3	-7,974999957E-3	1,801249944E-2
8,510253178E0	-2,749999985E-2	-5,912499875E-2	-5,747500062E-2
8,530415639E0	-5,843750015E-2	-8,566249907E-2	-7,246249914E-2
8,550578110E0	-1,040875018E-1	-8,359999955E-2	-3,299999982E-2
8,570740589E0	-1,168750003E-1	-8,153750002E-2	1,181124970E-1
8,590903069E0	-2,117500082E-2	-5,802499875E-2	2,553375065E-1
8,611065509E0	5,444999784E-2	-4,427500069E-2	3,192749918E-1
8,631227992E0	6,723749638E-2	-2,749999985E-3	2,820124924E-1
8,651390466E0	1,108250022E-1	1,113750041E-2	1,691250056E-1
8,671552911E0	1,214125007E-1	-2,502499893E-2	6,599999964E-2
8,691715386E0	1,247124970E-1	-7,012499962E-3	6,270000339E-2
8,711877923E0	8,002500236E-2	-1,333750039E-2	8,401250094E-2
8,732040362E0	5,018749833E-2	-4,853750020E-2	7,658749819E-2
8,752202825E0	2,337499987E-3	-1,223750040E-2	3,079999983E-2
8,772365531E0	-1,897500083E-2	4,193750024E-2	-5,747500062E-2
8,792527776E0	2,351249941E-2	3,712499980E-3	-1,416250020E-1
8,812690210E0	8,098749816E-2	-3,148749843E-2	-1,468500048E-1
8,832852680E0	7,356250286E-2	-6,448750198E-2	-9,267500043E-2
8,853015358E0	5,981250107E-2	-8,359999955E-2	-2,873750031E-2
8,873177791E0	5,224999785E-2	-1,761374921E-1	5,224999972E-3
8,893340222E0	1,289750040E-1	-1,495999992E-1	-1,594999991E-2
8,913502688E0	9,171249717E-2	-1,155000031E-1	-4,042499885E-2
8,933665157E0	6,599999964E-3	-8,359999955E-2	-8,195000142E-2
8,953827654E0	-1,020250022E-1	-1,979999989E-2	-5,431250110E-2
8,973990179E0	-1,882375032E-1	7,713750005E-2	9,047500044E-2
8,994152647E0	-1,392875016E-1	9,941250086E-2	2,011625022E-1
9,014315108E0	-1,154999994E-2	3,024999984E-2	2,575374842E-1
9,034477575E0	1,768250018E-1	4,413750023E-2	2,032250017E-1
9,054640075E0	2,161500007E-1	-1,333750039E-2	3,932499886E-2
9,074802530E0	1,406625062E-1	-8,786249906E-2	-1,937374920E-1
9,094965219E0	2,681249939E-2	-7,507500052E-2	-2,810499966E-1
9,115127681E0	-3,176249936E-2	-1,112374961E-1	-2,639999986E-1
9,135290118E0	-2,323750034E-2	-4,097500071E-2	-1,533125043E-1
9,155452580E0	-3,712499887E-2	1,249874979E-1	6,489999592E-2
9,175615030E0	-1,471249945E-2	1,079374999E-1	1,585374922E-1
9,195777568E0	3,533750027E-2	5,582499877E-2	1,659625024E-1
9,215940037E0	7,782500237E-2	8,139999956E-2	1,425874978E-1
9,236102746E0	1,853500009E-1	-3,464999795E-2	4,468749836E-2
9,256265006E0	2,204124928E-1	-1,538625062E-1	-3,616249934E-2
9,276427478E0	1,662375033E-1	-1,495999992E-1	-3,519999981E-2
9,296590176E0	1,204499975E-1	-1,208624989E-1	5,224999972E-3
9,316752666E0	3,533750027E-2	-8,786249906E-2	2,873750031E-2
9,336915212E0	-1,094499975E-1	-2,928750031E-2	2,227500081E-2
9,357077718E0	-1,572999954E-1	2,708750032E-2	-2,241249941E-2
9,377240116E0	-1,530375034E-1	2,488750033E-2	-1,192125008E-1
9,397402899E0	-8,071249723E-2	6,008749828E-2	-1,735250056E-1
9,417565111E0	-2,859999985E-2	1,121999994E-1	-1,948374957E-1
9,437727587E0	7,576250285E-2	5,156249925E-2	-1,968999952E-1
9,457890262E0	1,289750040E-1	-4,207500070E-2	-1,926375031E-1
9,478052709E0	4,908749834E-2	-1,165999994E-1	-1,533125043E-1
9,498215174E0	-1,020250022E-1	-1,900250018E-1	-8,937499672E-2
9,518377632E0	-1,637624949E-1	-1,592250019E-1	-2,667500079E-2
9,538540179E0	-1,754499972E-1	-1,208624989E-1	2,021249942E-2
9,558702607E0	-2,095499933E-1	3,712499980E-3	1,277374923E-1
9,578865249E0	-1,296624988E-1	1,813624948E-1	2,382874936E-1
9,599027475E0	-1,471249945E-2	2,282499969E-1	2,712875009E-1
9,619190233E0	5,761250108E-2	1,079374999E-1	2,234375030E-1
9,639352616E0	-1,924999990E-3	-3,671250120E-2	1,436875015E-1
9,659515157E0	-5,513750017E-2	-9,418749809E-2	4,468749836E-2
9,679677608E0	1,086249948E-2	-2,389750034E-1	-8,937499672E-2
9,699840051E0	6,819999963E-2	-2,858625054E-1	-1,223749965E-1
9,720002748E0	1,821874976E-1	-1,336500049E-1	-1,704999991E-2
9,740165205E0	2,417249978E-1	-5,912499875E-2	9,143749624E-2
9,760327651E0	1,458874941E-1	-1,869999990E-2	9,996250272E-2
9,780490118E0	4,056249931E-2	-8,112499490E-3	6,270000339E-2
9,800652651E0	-1,361249946E-2	-7,301250100E-2	1,058750041E-2
9,820815369E0	1,374999993E-4	-5,706249923E-2	-3,409999982E-2
9,840977595E0	-1,361249946E-2	6,874999963E-3	-7,342500240E-2
9,861140368E0	2,144999988E-2	-3,575000167E-2	-7,136250287E-2
9,881302744E0	4,166249931E-2	-5,279999971E-2	-7,136250287E-2
9,901465277E0	-2,433750033E-2	1,429999992E-2	-1,594999991E-2
9,921627967E0	2,351249941E-2	1,579875052E-1	2,653750032E-2
9,941790424E0	4,908749834E-2	2,598750032E-2	-9,363749623E-2
9,961952973E0	-1,581249945E-2	-7,012499962E-3	-1,798499972E-1
9,982115450E0	-1,040875018E-1	7,287500054E-2	-1,744875014E-1
1,000227815E1	-1,264999956E-1	-3,355000168E-2	-1,820500046E-1
1,002244061E1	-1,137124971E-1	-1,676124930E-1	-8,731249720E-2
1,004260314E1	-1,471249945E-2	-1,134374961E-1	8,401250094E-2
1,006276560E1	1,278750002E-1	-4,633750021E-2	1,627999991E-1
1,008292805E1	1,662375033E-1	-5,499999970E-4	1,042250022E-1
1,010309072E1	8,318749815E-2	1,207249984E-1	4,358749837E-2
1,012325317E1	-9,624999948E-4	1,207249984E-1	3,162499983E-3
1,014341565E1	-5,197500065E-2	4,193750024E-2	-3,616249934E-2
1,016357810E1	-2,859999985E-2	-5,499999970E-4	-6,393750012E-2
1,018374088E1	2,571249940E-2	-2,928750031E-2	-9,679999948E-2
1,020390313E1	2,254999988E-2	-9,006249905E-2	-1,585374922E-1
1,022406589E1	-3,066249937E-2	1,113750041E-2	-2,352624983E-1
1,024422826E1	-1,031249985E-1	8,978749812E-2	-2,606999874E-1
1,026439082E1	-1,051874980E-1	9,624999762E-2	-2,597374916E-1
1,028455331E1	-9,776250273E-2	8,030000329E-2	-1,457500011E-1
1,030471581E1	-1,924999990E-3	8,346249908E-2	7,424999960E-3
1,032487851E1	4,908749834E-2	7,383749634E-2	9,143749624E-2
1,034504103E1	1,608750038E-2	-1,649999991E-2	1,117874980E-1
1,036520344E1	-1,044999994E-2	-3,684999794E-2	6,379999965E-2
1,038536612E1	-2,213750035E-2	-2,406249940E-2	7,424999960E-3
1,040552858E1	-7,012499869E-2	-9,528750181E-2	-2,667500079E-2
1,042569104E1	-6,049999967E-2	-1,304875016E-1	5,362499971E-3
1,044585356E1	4,399999976E-3	-7,397499681E-2	1,149500012E-1
1,046601624E1	2,777500078E-2	-5,706249923E-2	1,733874977E-1
1,048617871E1	4,399999976E-3	-2,076249942E-2	1,542750001E-1
1,050634127E1	4,798749834E-2	3,561250120E-2	1,212750003E-1
1,052650372E1	8,524999768E-2	-1,443750039E-2	8,401250094E-2
1,054666644E1	8,098749816E-2	-6,132499874E-2	1,058750041E-2
1,056682892E1	4,702499881E-2	-4,111250117E-2	-5,431250110E-2
1,058699147E1	-1,154999994E-2	-6,338749826E-2	-7,878749818E-2
1,060715416E1	-1,897500083E-2	-7,397499681E-2	-2,667500079E-2
1,062731662E1	1,512499992E-2	-2,186249942E-2	9,569999576E-2
1,064747915E1	2,351249941E-2	5,046249926E-2	1,297999918E-1
1,066764150E1	-2,117500082E-2	7,493750006E-2	5,431250110E-2
1,068780405E1	-4,028749838E-2	3,987500072E-2	-2,241249941E-2
1,070796670E1	-6,187499966E-3	-1,759999990E-2	-7,878749818E-2
1,072812912E1	5,224999785E-2	-4,949999973E-2	-1,010624990E-1
1,074829171E1	4,276249930E-2	-2,722499892E-2	-9,473749995E-2
1,076845442E1	1,182499994E-2	-4,001250118E-2	-3,299999982E-2
1,078861688E1	-3,808749840E-2	1,429999992E-2	6,173750013E-2
1,080877942E1	-9,033749998E-2	6,435000151E-2	1,149500012E-1
1,082894190E1	-7,864999771E-2	8,456250280E-2	1,181124970E-1
1,084910461E1	2,337499987E-3	-2,296249941E-2	4,152499884E-2
1,086926708E1	6,407500058E-2	-1,165999994E-1	-9,679999948E-2
1,088942963E1	6,407500058E-2	-1,091749966E-1	-1,702249944E-1
1,090959241E1	4,482499883E-2	-7,191249728E-2	-1,553750038E-1
1,092975484E1	2,254999988E-2	-8,359999955E-2	-7,878749818E-2
1,094991726E1	2,337499987E-3	5,472499877E-2	4,578749835E-2
1,097007995E1	-6,792499870E-2	1,548250020E-1	1,075249985E-1
1,099024248E1	-6,476250291E-2	3,341250122E-2	8,195000142E-2
1,101040494E1	-1,471249945E-2	-6,338749826E-2	5,431250110E-2
1,103056761E1	2,351249941E-2	-2,749999985E-3	4,895000160E-2
1,105073006E1	5,651250109E-2	-1,869999990E-2	5,101250112E-2
1,107089254E1	1,033999994E-1	1,966249943E-2	7,026249915E-2
1,109105508E1	1,831499934E-1	9,941250086E-2	1,308999956E-1
1,111121755E1	1,788875014E-1	6,104999781E-2	1,585374922E-1
1,113138000E1	8,208750188E-2	2,612499986E-3	9,473749995E-2
1,115154269E1	-4,661250114E-2	3,712499980E-3	-2,021249942E-2
1,117170524E1	-7,012499869E-2	-3,038750030E-2	-1,192125008E-1
1,119186773E1	2,461249940E-2	-2,502499893E-2	-1,681624949E-1
1,121203045E1	1,395625025E-1	-2,186249942E-2	-1,596374959E-1
1,123219292E1	2,268749923E-1	1,209999993E-2	-1,351625025E-1
1,125235546E1	2,129874974E-1	4,674999975E-3	-1,212750003E-1
1,127251823E1	1,215500012E-1	-1,251250058E-1	-1,713249981E-1
1,129268068E1	-3,918749839E-2	-2,517625093E-1	-2,022625059E-1
1,131284313E1	-1,126125008E-1	-2,486000061E-1	-1,713249981E-1
1,133300582E1	-4,564999789E-2	-1,410750002E-1	-5,747500062E-2
1,135316827E1	9,377499670E-2	-4,111250117E-2	1,127500013E-1
1,137333081E1	1,662375033E-1	8,236250281E-2	3,042874932E-1
1,139349330E1	9,913749993E-2	1,887875050E-1	4,437125027E-1
1,141365599E1	-1,471249945E-2	2,080374956E-1	4,501749873E-1
1,143381844E1	-6,682500243E-2	1,016125008E-1	3,053874969E-1
1,145398097E1	2,557500079E-2	3,299999982E-3	1,363999993E-1
1,147414367E1	2,065249979E-1	-2,433750033E-2	2,749999985E-4
1,149430611E1	3,469125032E-1	4,578749835E-2	-1,104125008E-1
1,151446865E1	3,778499961E-1	6,393750012E-2	-1,530375034E-1
1,153463135E1	3,788124919E-1	3,836249933E-2	-9,556250274E-2
1,155479378E1	3,118500113E-1	3,203750029E-2	-5,939999968E-2
1,157495633E1	1,649999917E-1	1,278750040E-2	-7,961250097E-2
1,159511877E1	1,388750039E-2	2,241249941E-2	-7,741250098E-2
1,161528149E1	-4,895000160E-2	7,246249914E-2	-2,639999986E-2
1,163544403E1	2,873750031E-2	9,047500044E-2	1,512499992E-2
1,165560649E1	7,878749818E-2	6,393750012E-2	1,292499993E-2
1,167576921E1	1,032624990E-1	9,047500044E-2	-1,993750036E-2
1,169593167E1	3,299999982E-2	9,803749621E-2	-4,867500067E-2
1,171609425E1	-3,409999982E-2	5,541250110E-2	-7,851249725E-2
1,173625702E1	-7,122500241E-2	-4,784999788E-2	-1,009249985E-1
1,175641939E1	-7,768750191E-2	-5,637500063E-2	-9,872499853E-2
1,177658194E1	-4,578749835E-2	-6,159999967E-2	-1,243000031E-1
1,179674464E1	-1,099999994E-3	-1,911249943E-2	-1,348875016E-1
1,181690708E1	4,358749837E-2	5,541250110E-2	-7,851249725E-2
1,183706960E1	6,599999964E-2	5,761250108E-2	-2,639999986E-2
1,185723204E1	4,358749837E-2	2,667500079E-2	1,086249948E-2
1,187739475E1	-1,168750040E-2	2,461249940E-2	4,386249930E-2
1,189755730E1	-6,379999965E-2	1,608750038E-2	3,959999979E-2
1,191771973E1	-1,117874980E-1	-2,007500082E-2	-1,471249945E-2
1,193788242E1	-1,223749965E-1	1,498750038E-2	-2,749999985E-2
1,195804489E1	-6,710000336E-2	7,878749818E-2	-3,492499888E-2
1,197820746E1	-1,484999992E-2	7,246249914E-2	-6,682500243E-2
1,199837017E1	2,131249942E-2	2,241249941E-2	-4,867500067E-2
1,201853265E1	4,262499977E-3	-2,062499989E-3	2,571249940E-2
1,203869518E1	-5,321250111E-2	-5,733750015E-2	5,238749832E-2
1,205885764E1	-5,953750014E-2	-6,270000339E-2	2,997500077E-2
1,207902033E1	-1,594999991E-2	-5,307500064E-2	-5,197500065E-2
1,209918284E1	7,424999960E-3	-3,079999983E-2	-3,698749840E-2
1,211934529E1	-1,099999994E-3	-1,911249943E-2	2,791249938E-2
1,213950797E1	-2,763750032E-2	-7,975000143E-2	7,369999588E-2
1,215967042E1	1,099999994E-3	-7,232499868E-2	8,964999765E-2
1,217983294E1	-3,616249934E-2	-8,181250095E-2	3,423750028E-2
1,219999562E1	-3,409999982E-2	-7,122500241E-2	-8,497499675E-2
1,222015808E1	2,337500080E-2	-7,232499868E-2	-1,359875053E-1
1,224032062E1	1,500124931E-1	-1,911249943E-2	-1,317249984E-1
1,226048332E1	2,160124928E-1	-8,387500420E-3	-2,639999986E-2
1,228064586E1	1,830125004E-1	9,624999948E-3	6,723749638E-2
1,230080832E1	6,283749640E-2	1,182499994E-2	9,913749993E-2
1,232097102E1	2,131249942E-2	-2,117500082E-2	4,496249929E-2
1,234113348E1	1,704999991E-2	-3,396249935E-2	-2,103750035E-2
1,236129603E1	4,358749837E-2	-4,248749837E-2	-7,851249725E-2
1,238145875E1	8,731249720E-2	-1,264999993E-2	-6,476250291E-2
1,240162131E1	4,152499884E-2	1,704999991E-2	7,892499864E-2
1,242178379E1	-5,637500063E-2	8,208750188E-2	1,864500046E-1
1,244194650E1	-1,319999993E-1	7,782500237E-2	2,502500117E-1
1,246210903E1	-1,277374923E-1	7,988750190E-2	2,183499932E-1
1,248227148E1	-1,266375035E-1	3,093750030E-2	6,943749636E-2
1,250243417E1	-9,253749996E-2	-2,433750033E-2	-8,167500049E-2
1,252259662E1	1,278750040E-2	1,099999994E-3	-1,328250021E-1
1,254275918E1	5,953750014E-2	-1,691249944E-2	-9,129999578E-2
1,256292186E1	5,321250111E-2	-4,455000162E-2	2,681249939E-2
1,258308433E1	2,983750030E-2	-6,696250290E-2	1,395625025E-1
1,260324677E1	-1,704999991E-2	-1,383250058E-1	9,597499669E-2
1,262340932E1	-5,101250112E-2	-1,627999991E-1	3,313750029E-2
1,264357176E1	-8,401250094E-2	-1,116499975E-1	3,217500076E-2
1,266373442E1	-2,021249942E-2	-6,063750014E-2	7,150000334E-2
1,268389691E1	-1,099999994E-3	3,093750030E-2	1,523499936E-1
1,270405945E1	-1,192125008E-1	6,710000336E-2	3,194124997E-1
1,272422215E1	-1,095874980E-1	1,310375035E-1	3,993000090E-1
1,274438462E1	-1,064250022E-1	1,203124970E-1	4,046624899E-1
1,276454716E1	-4,468749836E-2	8,098749816E-2	3,151499927E-1
1,278470961E1	4,895000160E-2	1,072499994E-2	2,003374994E-1
1,280487230E1	1,820500046E-1	-3,189999983E-2	1,247124970E-1
1,282503474E1	2,096875012E-1	-7,012499869E-2	7,150000334E-2
1,284519727E1	1,436875015E-1	-5,527500063E-2	2,571249940E-2
1,286535999E1	1,053249985E-1	-1,374999993E-2	7,466249913E-2
1,288552252E1	1,490499973E-1	6,393750012E-2	1,694000065E-1
1,290568496E1	2,692250013E-1	1,533125043E-1	1,715999991E-1
1,292584742E1	2,330625057E-1	1,533125043E-1	1,269125044E-1
1,294601018E1	1,979999989E-1	1,388750039E-2	8,635000139E-2
1,296617258E1	1,331000030E-1	-7,548750192E-2	5,128749833E-2
1,298633514E1	6,599999964E-2	-4,138749838E-2	-1,154999994E-2
1,300649783E1	5,004999787E-2	-1,691249944E-2	1,237499993E-3
1,302666027E1	1,064250022E-1	1,388750039E-2	1,938750036E-2
1,304682303E1	1,203124970E-1	2,777500078E-2	-1,251249947E-2
1,306698548E1	1,203124970E-1	-5,637500063E-2	-1,306249946E-1
1,308714796E1	6,916250288E-2	-1,808124930E-1	-2,318249941E-1
1,310731049E1	-2,763750032E-2	-1,350249946E-1	-1,775124967E-1
1,312747296E1	7,424999960E-3	-4,991250113E-2	-3,024999984E-3
1,314763564E1	6,324999966E-3	-4,991250113E-2	1,471250057E-1
1,316779808E1	-2,337500080E-2	3,409999982E-2	1,651374996E-1
1,318796063E1	-3,836249933E-2	9,693749994E-2	1,875499934E-1
1,320812308E1	-9,253749996E-2	6,077500060E-2	1,673374921E-1
1,322828577E1	-5,637500063E-2	3,299999982E-3	1,683000028E-1
1,324844823E1	5,004999787E-2	2,034999989E-2	1,193500012E-1
1,326861081E1	5,321250111E-2	2,351249941E-2	1,402499992E-2
1,328877352E1	7,452499866E-2	5,115000159E-2	1,622499898E-2
1,330893597E1	1,064250022E-1	1,171500012E-1	-6,187499966E-3
1,332909850E1	5,115000159E-2	8,841250092E-2	-8,167500049E-2
1,334926097E1	3,932499886E-2	-2,543750033E-2	-1,434125006E-1
1,336942377E1	4,468749836E-2	-5,224999972E-3	-1,189374998E-1
1,338958644E1	7,232499868E-2	5,362499971E-3	-6,792499870E-2
1,340974889E1	7,136250287E-2	-2,337500080E-2	-5,939999968E-2
1,342991137E1	3,409999982E-2	8,662499487E-3	-4,661250114E-2
1,345007391E1	-1,388750039E-2	7,878749818E-2	-3,918749839E-2
1,347023662E1	-7,975000143E-2	8,731249720E-2	-2,103750035E-2
1,349039908E1	-1,170125008E-1	6,393750012E-2	5,871250108E-2
1,351056158E1	-1,394249946E-1	6,173750013E-2	1,406625062E-1
1,353072403E1	-1,511124969E-1	1,099999994E-3	1,300749928E-1
1,355088651E1	-8,401250094E-2	-5,211250111E-2	6,187500060E-2
1,357104922E1	4,262499977E-3	-7,548750192E-2	-5,403750017E-2
1,359121167E1	5,953750014E-2	-1,105500013E-1	-1,200374961E-1
1,361137412E1	1,522125006E-1	-4,042499885E-2	-8,813749999E-2
1,363153665E1	1,106875017E-1	-3,506249934E-2	-2,749999985E-2
1,365169936E1	4,578749835E-2	-2,062499989E-3	9,762499481E-3
1,367186181E1	-1,911249943E-2	2,777500078E-2	-4,344999790E-2
1,369202434E1	-8,621250093E-2	4,688749835E-2	-1,402499974E-1
1,371218702E1	-6,489999592E-2	8,841250092E-2	-2,190375030E-1
1,373234950E1	-5,321250111E-2	6,819999963E-2	-1,849374920E-1
1,375251204E1	-3,079999983E-2	5,967500061E-2	-1,413500011E-1
1,377267473E1	-2,337500080E-2	1,182499994E-2	-5,719999969E-2
1,379283717E1	-5,101250112E-2	-1,691249944E-2	-3,987499978E-3
1,381299971E1	-1,021625027E-1	-4,138749838E-2	-4,551250115E-2
1,383316218E1	-5,953750014E-2	-2,763750032E-2	-7,218749821E-2
1,385332489E1	-1,814999990E-2	2,777500078E-2	-5,939999968E-2
1,387348733E1	-1,911249943E-2	5,362499971E-3	2,144999988E-2
1,389364988E1	2,021249942E-2	7,562499959E-3	1,885125041E-1
1,391381258E1	6,324999966E-3	7,246249914E-2	2,811875045E-1
1,393397503E1	-4,895000160E-2	8,951249719E-2	3,173500001E-1
1,395413749E1	1,168750040E-2	9,583749622E-2	2,886124849E-1
1,397430005E1	3,409999982E-2	7,672499865E-2	1,608749926E-1
1,399446251E1	1,388750039E-2	4,152499884E-2	5,444999784E-2
1,401462519E1	1,388750039E-2	1,182499994E-2	-8,249999955E-3
1,403478771E1	1,117874980E-1	-1,264999993E-2	-5,197500065E-2
1,405495019E1	1,266375035E-1	-7,438749820E-2	-9,872499853E-2
1,407511289E1	9,790000319E-2	-5,211250111E-2	-2,073500007E-1
1,409527535E1	5,115000159E-2	-3,079999983E-2	-2,455749959E-1
1,411543780E1	-1,058750041E-2	6,819999963E-2	-2,147749960E-1
1,413560035E1	-7,026249915E-2	1,564749926E-1	-1,231999993E-1
1,415576303E1	-1,149500012E-1	6,393750012E-2	-5,197500065E-2
1,417592556E1	-6,806249917E-2	-3,079999983E-2	5,499999970E-3
1,419608801E1	-3,409999982E-2	-4,138749838E-2	7,150000334E-2
1,421625070E1	-7,424999960E-3	-6,063750014E-2	1,402499992E-2
1,423641324E1	-5,211250111E-2	-1,861750036E-1	-7,108750194E-2
1,425657570E1	-3,162499983E-3	-1,563374996E-1	-4,881250113E-2
1,427673818E1	2,199999988E-3	-2,653750032E-2	2,144999988E-2
1,429690087E1	-2,873750031E-2	-4,784999788E-2	7,259999961E-2
1,431706336E1	-5,211250111E-2	-3,396249935E-2	1,385999918E-1
1,433722588E1	-3,409999982E-2	4,688749835E-2	1,832875013E-1
1,435738834E1	1,814999990E-2	6,503749639E-2	1,098624989E-1
1,437755105E1	6,489999592E-2	7,988750190E-2	6,599999964E-3
1,439771361E1	5,747500062E-2	3,299999982E-3	-9,666249901E-2
1,441787606E1	8,937499672E-2	-3,506249934E-2	-1,509750038E-1
1,443803875E1	1,160499975E-1	-5,527500063E-2	-1,168750003E-1
1,445820121E1	1,542750001E-1	-6,159999967E-2	-1,044999994E-2
1,447836366E1	1,799875051E-1	-6,448750198E-2	5,637500063E-2
1,449852618E1	8,855000138E-2	-4,523750022E-2	5,747500062E-2
1,451868887E1	1,512499992E-2	-1,443750039E-2	5,362499971E-3
1,453885133E1	-6,586249918E-2	3,135000169E-2	-1,484999992E-2
1,455901388E1	-1,233374998E-1	1,335124969E-1	4,468749836E-2
1,457917633E1	-1,572999954E-1	7,603749633E-2	1,383250058E-1
1,459933880E1	-1,370874941E-1	1,005124971E-1	1,894749999E-1
1,461950156E1	-9,033749998E-2	1,079374999E-1	1,362625062E-1
1,463966401E1	-3,808749840E-2	4,619999975E-2	6,063750014E-2
1,465982648E1	8,635000139E-2	-7,191249728E-2	-7,026249915E-2
1,467998917E1	1,139874980E-1	-1,262249947E-1	-1,553750038E-1
1,470015163E1	1,002374962E-1	-1,357125044E-1	-1,660999954E-1
1,472031417E1	8,855000138E-2	-7,081250101E-2	-1,160499975E-1
1,474047688E1	1,534499973E-1	-1,237499993E-2	-6,599999964E-2
1,476063936E1	1,417624950E-1	7,177499682E-2	3,932499886E-2
1,478080181E1	9,597499669E-2	1,472624987E-1	9,363749623E-2
1,480096435E1	-2,007500082E-2	6,861250103E-2	5,321250111E-2
1,482112680E1	-1,083500013E-1	-3,575000167E-2	1,058750041E-2
1,484128952E1	-1,009249985E-1	-1,979999989E-2	7,424999960E-3
1,486145198E1	4,056249931E-2	-5,376249924E-2	5,362499971E-3
1,488161469E1	1,619749963E-1	-3,684999794E-2	2,337500080E-2
1,490177722E1	1,671999991E-1	-3,849999979E-3	1,058750041E-2
1,492193967E1	8,208750188E-2	3,987500072E-2	-5,637500063E-2
1,494210237E1	-1,467124969E-1	1,113750041E-2	-5,857500061E-2
1,496226483E1	-2,062499970E-1	-3,148749843E-2	1,168750040E-2
1,498242736E1	-1,370874941E-1	-4,207500070E-2	4,784999788E-2
1,500258980E1	-5,224999972E-3	-8,043749630E-2	4,262499977E-3
1,502275251E1	7,039999962E-2	-4,949999973E-2	-4,578749835E-2
1,504291497E1	9,487500042E-2	1,856249943E-2	-6,393750012E-2
1,506307752E1	4,056249931E-2	3,341250122E-2	3,616249934E-2
1,508323996E1	-1,897500083E-2	7,067500055E-2	1,255374998E-1
1,510340250E1	-7,328750193E-2	2,818750031E-2	1,436875015E-1
1,512356519E1	-9,982500225E-2	2,612499986E-3	8,937499672E-2
1,514372765E1	-8,923749626E-2	3,987500072E-2	3,409999982E-2
1,516389018E1	-7,287499961E-3	3,244999796E-2	-2,447500080E-2
1,518405263E1	5,335000157E-2	7,287500054E-2	-5,211250111E-2
1,520421511E1	9,803749621E-2	5,472499877E-2	-8,841250092E-2
1,522437788E1	2,571249940E-2	-7,727500051E-2	-9,157499671E-2
1,524454032E1	-1,581249945E-2	-8,676250279E-2	-8,304999769E-2
1,526470276E1	1,512499992E-2	-9,748750180E-2	-1,064250022E-1
1,528486545E1	6,833750010E-2	-1,155000031E-1	-1,425874978E-1
1,530502800E1	1,044999957E-1	-4,523750022E-2	-5,967500061E-2
1,532519046E1	8,744999766E-2	-8,112499490E-3	9,996250272E-2
1,534535294E1	-2,007500082E-2	-1,304875016E-1	2,000624985E-1
1,536551561E1	-1,307625026E-1	-1,442375034E-1	2,415875047E-1
1,538567805E1	-1,903000027E-1	-1,507000029E-1	1,958000064E-1
1,540584059E1	-1,817750037E-1	-9,006249905E-2	1,181124970E-1
1,542600308E1	-4,991250113E-2	2,392499894E-2	7,452499866E-2
1,544616555E1	1,182499975E-1	4,193750024E-2	1,138499975E-1
1,546632826E1	1,608749926E-1	4,303750023E-2	1,649999917E-1
1,548649072E1	1,087625027E-1	1,636249945E-2	1,468500048E-1
1,550665326E1	1,292499993E-2	1,113750041E-2	6,063750014E-2
1,552681596E1	1,718750037E-2	7,809999585E-2	-1,075249985E-1
1,554697850E1	1,237499993E-3	7,067500055E-2	-2,065249979E-1
1,556714099E1	2,351249941E-2	4,303750023E-2	-2,150499970E-1
1,558730335E1	6,503749639E-2	4,729999974E-2	-1,575749964E-1
1,560746611E1	4,702499881E-2	5,046249926E-2	-2,873750031E-2
1,562762854E1	5,018749833E-2	2,392499894E-2	5,321250111E-2
1,564779107E1	1,374999993E-4	-1,649999991E-3	4,468749836E-2
1,566795353E1	-1,264999993E-2	-1,127499994E-2	1,484999992E-2
1,568811600E1	1,828750037E-2	-3,684999794E-2	4,358749837E-2
1,570827870E1	7,246249914E-2	-4,317500070E-2	1,319999993E-1
1,572844115E1	7,466249913E-2	-3,148749843E-2	2,032250017E-1
1,574860368E1	3,313750029E-2	-5,376249924E-2	2,128500044E-1
1,576876619E1	4,482499883E-2	-2,076249942E-2	1,372250021E-1
1,578892890E1	3,313750029E-2	2,914999984E-2	-4,262499977E-3
1,580909137E1	6,503749639E-2	7,809999585E-2	-1,095874980E-1
1,582925391E1	1,130250022E-1	4,303750023E-2	-1,830125004E-1
1,584941659E1	1,011999995E-1	-4,949999973E-2	-1,351625025E-1
1,586957913E1	1,044999957E-1	-4,317500070E-2	-6,710000336E-2
1,588974158E1	8,098749816E-2	-9,006249905E-2	-1,032624990E-1
1,590990404E1	2,034999989E-2	-9,212499857E-2	-1,787499934E-1
1,593006672E1	-4,991250113E-2	-4,523750022E-2	-1,585374922E-1
1,595022916E1	-7,961250097E-2	2,708750032E-2	-6,489999592E-2
1,597039170E1	-5,513750017E-2	3,135000169E-2	8,084999770E-2
1,599055417E1	-5,197500065E-2	-7,507500052E-2	1,989624947E-1
1,601071688E1	-2,859999985E-2	-1,038125008E-1	2,043250054E-1
1,603087932E1	-5,197500065E-2	-5,596249923E-2	1,127500013E-1
1,605104155E1	-1,148125008E-1	-1,091749966E-1	-2,131249942E-2
1,607120425E1	-8,923749626E-2	-5,279999971E-2	-1,106875017E-1
1,609136678E1	-4,124999978E-3	1,966249943E-2	-8,511249721E-2
1,611152926E1	1,011999995E-1	4,193750024E-2	1,168750040E-2
1,613169195E1	2,571249940E-2	7,493750006E-2	5,747500062E-2
1,615185443E1	-1,073874980E-1	9,831249714E-2	4,248749837E-2
1,617201698E1	-1,445125043E-1	8,662500232E-2	-5,431250110E-2
1,619217947E1	-5,623750016E-2	2,818750031E-2	-1,787499934E-1
1,621234218E1	1,924999990E-2	-2,928750031E-2	-2,287999988E-1
1,623250464E1	8,428750187E-2	-2,186249942E-2	-1,894749999E-1
1,625266717E1	1,076624990E-1	-3,464999795E-2	-1,234750003E-1
1,627282986E1	9,281250089E-2	-2,406249940E-2	-4,358749837E-2
1,629299232E1	6,833750010E-2	-6,338749826E-2	-6,462499965E-3
1,631315478E1	1,718750037E-2	-2,612499893E-2	2,447500080E-2
1,633331733E1	-2,433750033E-2	4,413750023E-2	1,801249944E-2
1,635348002E1	-5,197500065E-2	-5,499999970E-4	3,396249935E-2
1,637364226E1	-2,007500082E-2	4,193750024E-2	1,553750038E-1
1,639380494E1	1,342000067E-1	7,493750006E-2	2,149125040E-1
1,641396745E1	1,204499975E-1	2,598750032E-2	1,670625061E-1
1,643413014E1	-1,897500083E-2	-1,027124971E-1	7,548750192E-2
1,645429233E1	-1,370874941E-1	-1,155000031E-1	-1,278750040E-2
1,647445504E1	-5,939999968E-2	-1,251250058E-1	-5,637500063E-2
1,649461751E1	7,892499864E-2	-1,601874977E-1	-7,658749819E-2
1,651478003E1	1,662375033E-1	-7,727500051E-2	-8,511249721E-2
1,653494273E1	1,949750036E-1	2,818750031E-2	-8,621250093E-2
1,655510520E1	2,396624982E-1	1,101374999E-1	-3,506249934E-2
1,657526767E1	2,055625021E-1	1,633500010E-1	-1,168750040E-2
1,659543020E1	6,723749638E-2	1,355749965E-1	1,278750040E-2
1,661559266E1	-1,370874941E-1	4,303750023E-2	8,195000142E-2
1,663575514E1	-2,030874938E-1	-1,127499994E-2	1,127500013E-1
1,665591784E1	-2,360875010E-1	-6,971249729E-2	9,047500044E-2
1,667608029E1	-1,031249985E-1	-3,038750030E-2	2,227500081E-2
1,669624283E1	7,892499864E-2	-7,012499962E-3	1,911249943E-2
1,671640551E1	1,182499975E-1	-4,427500069E-2	1,704999991E-2
1,673656805E1	8,951249719E-2	-4,001250118E-2	3,299999982E-2
1,675673051E1	3,533750027E-2	-2,076249942E-2	1,244374961E-1
1,677689290E1	-4,028749838E-2	-3,038750030E-2	1,872749925E-1
1,679705568E1	-8,813749999E-2	2,488750033E-2	1,042250022E-1
1,681721812E1	-3,808749840E-2	4,509999976E-2	-3,409999982E-2
1,683738058E1	4,482499883E-2	6,751249731E-2	-1,659625024E-1
1,685754312E1	1,023000032E-1	6,957499683E-2	-2,182125002E-1
1,687770558E1	9,171249717E-2	2,282499894E-2	-2,224749923E-1
1,689786804E1	-1,264999993E-2	2,612499986E-3	-2,182125002E-1
1,691803074E1	-2,323750034E-2	4,674999975E-3	-2,022625059E-1
1,693819320E1	4,482499883E-2	-1,237499993E-2	-1,863124967E-1
1,695835572E1	1,236125007E-1	-5,802499875E-2	-1,468500048E-1
1,697851820E1	1,449249983E-1	-1,038125008E-1	-3,409999982E-2
1,699868089E1	8,635000139E-2	-1,112374961E-1	2,021249942E-2
1,701884336E1	7,562499959E-3	-1,049124971E-1	6,283749640E-2
1,703900590E1	-8,703749627E-2	-4,949999973E-2	9,569999576E-2
1,705916834E1	-7,328750193E-2	7,067500055E-2	9,679999948E-2
1,707933101E1	-2,007500082E-2	1,472624987E-1	1,436875015E-1
1,709949348E1	1,725624949E-1	1,579875052E-1	5,637500063E-2
1,711965597E1	1,831499934E-1	2,598750032E-2	-5,637500063E-2
1,713981849E1	1,427250057E-1	-6,875000149E-2	-1,277374923E-1
1,715998095E1	4,908749834E-2	-9,212499857E-2	-1,479499936E-1
1,718014365E1	3,849999979E-2	-2,612499893E-2	-1,436875015E-1
1,720030612E1	1,352999955E-1	-1,017499994E-2	-1,021625027E-1
1,722046867E1	2,098249942E-1	1,429999992E-2	8,524999954E-3
1,724063114E1	1,534499973E-1	-1,759999990E-2	1,405249983E-1
1,726079385E1	-1,044999994E-2	-8,470000327E-2	1,915374994E-1
1,728095628E1	-1,817750037E-1	-5,279999971E-2	2,171124965E-1
1,730111876E1	-2,488749921E-1	7,974999957E-3	1,287000030E-1
1,732128132E1	-1,541374922E-1	5,788749829E-2	5,101250112E-2
1,734144400E1	1,086249948E-2	1,121999994E-1	3,409999982E-2
1,736160646E1	7,246249914E-2	8,139999956E-2	3,932499886E-2
1,738176899E1	5,444999784E-2	6,751249731E-2	2,873750031E-2
1,740193147E1	-2,859999985E-2	7,974999957E-3	-1,053249985E-1
1,742209415E1	-1,094499975E-1	1,003750041E-2	-2,490125000E-1
1,744225661E1	-1,350249946E-1	2,818750031E-2	-3,821125031E-1
1,746241913E1	-1,168750003E-1	6,008749828E-2	-4,032875001E-1
1,748258157E1	-1,359875053E-1	3,657500073E-2	-3,533749878E-1
1,750274425E1	-1,563374996E-1	-1,979999989E-2	-2,597374916E-1
1,752290671E1	-8,607500046E-2	-7,301250100E-2	-1,533125043E-1
1,754306923E1	-6,682500243E-2	-8,153750002E-2	-1,043625027E-1
1,756323161E1	-9,129999578E-2	-1,740749925E-1	-5,431250110E-2
1,758339417E1	-1,264999993E-2	-9,322500229E-2	7,768750191E-2
1,760355663E1	8,098749816E-2	2,612499986E-3	2,734875083E-1
1,762371938E1	1,076624990E-1	1,429999992E-2	3,363249898E-1
1,764388177E1	5,444999784E-2	-1,127499994E-2	4,043875039E-1
1,766404425E1	-1,897500083E-2	4,124999978E-4	3,926999867E-1
1,768420681E1	-7,644999772E-2	4,619999975E-2	2,692250013E-1
1,770436928E1	-1,211374998E-1	2,914999984E-2	8,827500045E-2
1,772453197E1	-1,168750003E-1	5,692499876E-2	5,362499971E-3
1,774469444E1	-3,382499889E-2	4,619999975E-2	-4,262499884E-2
1,776485699E1	1,597750038E-1	4,674999975E-3	-1,735250056E-1
1,778501944E1	2,023999989E-1	-6,655000150E-2	-2,714250088E-1
1,780518220E1	1,214125007E-1	-6,764999777E-2	-3,852750063E-1
1,782534458E1	4,399999976E-3	-7,617499679E-2	-3,895374835E-1
1,784550705E1	-8,497499675E-2	-2,749999985E-3	-2,714250088E-1
1,786566958E1	-8,607500046E-2	7,603749633E-2	-5,857500061E-2
1,788583206E1	-3,024999984E-3	1,047749966E-1	1,021625027E-1
1,790599476E1	2,254999988E-2	1,483625025E-1	2,234375030E-1
1,792615722E1	-4,124999978E-3	1,750375032E-1	2,436500043E-1
1,794631969E1	6,599999964E-3	1,409374923E-1	1,340624988E-1
1,796648223E1	4,276249930E-2	1,260875016E-1	1,159124970E-1
1,798664472E1	7,576250285E-2	9,624999762E-2	9,790000319E-2
1,800680741E1	1,161874980E-1	8,030000329E-2	-9,624999948E-3
1,802696986E1	1,395625025E-1	8,772499859E-2	-9,899999946E-2
1,804713240E1	7,246249914E-2	8,346249908E-2	-1,713249981E-1
1,806729485E1	-3,808749840E-2	1,355749965E-1	-2,245374918E-1
1,808745750E1	-1,062875018E-1	8,346249908E-2	-2,213750035E-1
1,810761996E1	-7,755000144E-2	-1,869999990E-2	-1,968999952E-1
1,812778240E1	-4,991250113E-2	-9,955000132E-2	-1,533125043E-1
1,814794485E1	-3,382499889E-2	-4,853750020E-2	-1,457500011E-1
1,816810740E1	-4,661250114E-2	-2,832499892E-2	-1,288374960E-1
1,818827009E1	-9,350000322E-2	4,124999978E-4	-5,115000159E-2
1,820843254E1	-7,864999771E-2	2,818750031E-2	5,747500062E-2
1,822859500E1	-1,200374961E-1	6,874999963E-3	1,287000030E-1
1,824875756E1	-1,168750003E-1	1,636249945E-2	1,733874977E-1
1,826892003E1	-1,031249985E-1	-3,464999795E-2	1,383250058E-1
1,828908279E1	-7,328750193E-2	-7,191249728E-2	-4,262499977E-3
1,830924520E1	-1,211374998E-1	-8,249999583E-2	-9,157499671E-2
1,832940774E1	-1,222374961E-1	-2,186249942E-2	-1,234750003E-1
1,834957020E1	-1,456124932E-1	2,282499894E-2	-8,841250092E-2
1,836973288E1	-1,009249985E-1	6,324999779E-2	-2,447500080E-2
1,838989535E1	-6,792499870E-2	1,090374961E-1	-8,304999769E-2
1,841005788E1	-8,387500048E-2	6,118749827E-2	-2,074874938E-1
1,843022059E1	-1,115124971E-1	2,598750032E-2	-2,501125038E-1
1,845038308E1	-6,902500242E-2	-4,812499974E-3	-2,597374916E-1
1,847054556E1	8,662499487E-3	-2,928750031E-2	-1,926375031E-1
1,849070809E1	7,039999962E-2	-1,091749966E-1	-7,026249915E-2
1,851087056E1	1,810874939E-1	-8,359999955E-2	8,511249721E-2
1,853103301E1	2,491499931E-1	-1,145374998E-1	1,010624990E-1
1,855119547E1	2,109249979E-1	-1,889249980E-1	-3,162499983E-3
1,857135816E1	1,363999993E-1	-6,655000150E-2	-3,189999983E-2
1,859152063E1	-2,859999985E-2	1,058750004E-1	-3,299999982E-2
1,861168318E1	-4,564999789E-2	9,624999762E-2	3,932499886E-2
1,863184562E1	2,144999988E-2	6,751249731E-2	1,192125008E-1
1,865200810E1	-3,066249937E-2	1,016125008E-1	5,637500063E-2
1,867217077E1	-6,187499966E-3	4,303750023E-2	3,932499886E-2
1,869233321E1	2,254999988E-2	1,746249944E-2	1,594999991E-2
1,871249572E1	3,849999979E-2	-5,499999970E-4	-1,484999992E-2
1,873265819E1	2,337499987E-3	-4,317500070E-2	2,131249942E-2
1,875282067E1	-5,623750016E-2	-6,448750198E-2	5,857500061E-2
1,877298337E1	-9,033749998E-2	-5,376249924E-2	-1,594999991E-2
1,879314583E1	-1,062875018E-1	-2,406249940E-2	-3,726249933E-2
1,881330832E1	-1,424500048E-1	-7,012499962E-3	-2,241249941E-2
1,883347108E1	-7,644999772E-2	-6,132499874E-2	4,578749835E-2
1,885363329E1	-5,224999972E-3	-1,060125008E-1	1,319999993E-1
1,887379601E1	-9,624999948E-4	-2,928750031E-2	1,212750003E-1
1,889395847E1	-1,264999993E-2	-2,832499892E-2	1,032624990E-1
1,891412100E1	2,997500077E-2	-2,502499893E-2	3,616249934E-2
1,893428347E1	-1,361249946E-2	-2,076249942E-2	-3,093750030E-2
1,895444593E1	4,276249930E-2	1,966249943E-2	-2,131249942E-2
1,897460862E1	7,576250285E-2	-2,076249942E-2	5,637500063E-2
1,899477104E1	3,203750029E-2	-1,649999991E-2	3,616249934E-2
1,901493358E1	-7,438749820E-2	8,937500417E-3	-5,857500061E-2
1,903509604E1	-9,350000322E-2	-5,912499968E-3	-1,043625027E-1
1,905525873E1	-3,492499888E-2	-7,012499962E-3	-8,731249720E-2
1,907542120E1	6,929999590E-2	-7,617499679E-2	-5,637500063E-2
1,909558372E1	1,011999995E-1	-9,638749808E-2	-8,304999769E-2
1,911574618E1	5,444999784E-2	-7,191249728E-2	-5,637500063E-2
1,913590884E1	2,777500078E-2	-3,781250119E-2	-2,557500079E-2
1,915607107E1	1,718750037E-2	1,636249945E-2	-3,519999981E-2
1,917623376E1	-5,087500066E-2	3,712499980E-3	-4,042499885E-2
1,919639622E1	-7,108750194E-2	6,874999963E-3	-4,784999788E-2
1,921655876E1	-5,087500066E-2	4,193750024E-2	-1,388750039E-2
1,923672146E1	6,833750010E-2	5,156249925E-2	2,763750032E-2
1,925688393E1	1,704999954E-1	-4,812499974E-3	2,983750030E-2
1,927704640E1	2,012999952E-1	-6,132499874E-2	-7,424999960E-3
1,929720916E1	1,321374923E-1	-4,427500069E-2	-1,058750041E-2
1,931737142E1	1,097249985E-1	-7,397499681E-2	5,101250112E-2
1,933753410E1	2,087250054E-1	-7,617499679E-2	1,670625061E-1
1,935769657E1	2,917749882E-1	-4,853750020E-2	2,468124926E-1
1,937785901E1	2,769249976E-1	1,113750041E-2	2,755500078E-1
1,939802155E1	1,651374996E-1	5,898749828E-2	2,351250052E-1
1,941818398E1	8,855000138E-2	1,196250021E-1	1,405249983E-1
1,943834644E1	3,203750029E-2	1,142624989E-1	4,358749837E-2
1,945850913E1	1,402499992E-2	2,062499896E-2	-4,152499884E-2
1,947867166E1	8,002500236E-2	-2,406249940E-2	-1,245749965E-1
1,949883413E1	1,182499994E-2	-3,684999794E-2	-2,139499933E-1
1,951899659E1	-3,918749839E-2	-5,486249924E-2	-1,809500009E-1
1,953915930E1	-3,176249936E-2	-4,207500070E-2	-1,681624949E-1
1,955932174E1	-9,459999949E-2	-7,397499681E-2	-2,554749846E-1
1,957948420E1	-1,254000068E-1	-1,134374961E-1	-2,287999988E-1
1,959964668E1	-1,062875018E-1	-4,523750022E-2	-1,447875053E-1
1,961980944E1	-9,033749998E-2	-1,759999990E-2	-8,937499672E-2
1,963997194E1	-1,563374996E-1	1,451999992E-1	-1,627999991E-1
1,966013438E1	-2,127124965E-1	1,388749927E-1	-1,724250019E-1
1,968029684E1	-1,637624949E-1	3,024999984E-2	-1,852124929E-1
1,970045940E1	-8,387500420E-3	-1,553750038E-2	-1,649999917E-1
1,972062185E1	-4,771250114E-2	-1,942874938E-1	-8,731249720E-2
1,974078431E1	1,023000032E-1	-2,793999910E-1	2,653750032E-2
1,976094703E1	3,396250010E-1	-3,454000056E-1	1,574375033E-1
1,978110952E1	3,258749843E-1	-2,910875082E-1	1,989624947E-1
1,980127204E1	7,246249914E-2	-2,400749922E-1	2,063875049E-1
1,982143473E1	-7,287499961E-3	-6,228749827E-2	1,639000028E-1
1,984159719E1	-4,235000163E-2	-5,912499875E-2	1,489125043E-1
1,986175973E1	4,276249930E-2	-3,575000167E-2	1,394249946E-1
1,988192216E1	-2,969999984E-2	-2,502499893E-2	5,953750014E-2
1,990208462E1	-2,213750035E-2	2,612499986E-3	-5,857500061E-2
1,992224733E1	-7,218749821E-2	-5,912499968E-3	-6,283749640E-2
1,994240978E1	1,374999993E-4	-2,406249940E-2	-7,658749819E-2
1,996257232E1	2,461249940E-2	-1,186624989E-1	-7,562500238E-2
1,998273480E1	-3,712499887E-2	-1,410750002E-1	-1,095874980E-1
2,000289748E1	-1,083500013E-1	-8,359999955E-2	-8,415000141E-2
2,002305994E1	-5,513750017E-2	7,493750006E-2	-4,784999788E-2
2,004322240E1	-4,564999789E-2	1,600500047E-1	2,337500080E-2
2,006338487E1	-3,492499888E-2	2,367749959E-1	1,168750040E-2
2,008354734E1	-1,897500083E-2	2,303124964E-1	3,299999982E-2
2,010370981E1	-1,062875018E-1	1,440999955E-1	-7,342500240E-2
2,012387257E1	-1,860374957E-1	1,335124969E-1	-1,351625025E-1
2,014403484E1	-2,127124965E-1	7,383749634E-2	-1,032624990E-1
2,016419752E1	2,144999988E-2	3,712499980E-3	-1,000999957E-1
2,018436000E1	2,109249979E-1	-3,684999794E-2	-4,784999788E-2
2,020452246E1	2,726624906E-1	-2,502499893E-2	2,227500081E-2
2,022468498E1	1,725624949E-1	-4,207500070E-2	9,363749623E-2
2,024484743E1	5,018749833E-2	7,974999957E-3	1,468500048E-1
2,026501013E1	-2,323750034E-2	5,472499877E-2	2,202749997E-1
2,028517266E1	-5,623750016E-2	1,218250021E-1	2,831124961E-1
2,030533504E1	-5,513750017E-2	1,153625026E-1	3,235374987E-1
2,032549758E1	-3,024999984E-3	4,619999975E-2	2,831124961E-1
2,034566003E1	4,798749834E-2	2,282499894E-2	2,128500044E-1
2,036582249E1	1,402499992E-2	-2,928750031E-2	6,806249917E-2
2,038598520E1	-3,808749840E-2	-6,338749826E-2	-1,043625027E-1
2,040614768E1	-1,179749966E-1	-3,258749843E-2	-1,968999952E-1
2,042631021E1	-1,307625026E-1	1,746249944E-2	-1,883749962E-1
2,044647268E1	-9,033749998E-2	-1,237499993E-2	-1,340624988E-1
2,046663515E1	-7,644999772E-2	6,861250103E-2	-4,688749835E-2
2,048679783E1	-1,154999994E-2	1,665125042E-1	-1,099999994E-3
2,050696028E1	-5,087499972E-3	1,824624985E-1	4,042499885E-2
2,052712282E1	3,203750029E-2	1,802625060E-1	-2,557500079E-2
2,054728551E1	-2,323750034E-2	8,236250281E-2	-1,498750038E-2
2,056744775E1	5,499999970E-3	-4,812499974E-3	4,152499884E-2
2,058761021E1	1,130250022E-1	-7,727500051E-2	9,253749996E-2
2,060777289E1	1,662375033E-1	-1,453374922E-1	1,564749926E-1
2,062793534E1	2,044624984E-1	-3,575000167E-2	1,809500009E-1
2,064809789E1	7,782500237E-2	1,579875052E-1	1,852124929E-1
2,066826057E1	2,777500078E-2	2,909500003E-1	1,468500048E-1
2,068842279E1	-1,691249944E-2	2,952125072E-1	1,372250021E-1
2,070858551E1	2,681249939E-2	1,292500049E-1	4,895000160E-2
2,072874796E1	1,236125007E-1	-1,237499993E-2	-4,895000160E-2
2,074891041E1	3,629999980E-2	-7,617499679E-2	-1,724250019E-1
2,076907292E1	-5,513750017E-2	-1,165999994E-1	-2,160124928E-1
2,078923562E1	-9,033749998E-2	-2,326499969E-1	-1,585374922E-1
2,080939816E1	-1,563374996E-1	-2,549250126E-1	-1,627999991E-1
2,082956062E1	-3,254624903E-1	-1,464374959E-1	-1,394249946E-1
2,084972330E1	-3,723500073E-1	5,774999969E-3	-1,000999957E-1
2,086988577E1	-3,041499853E-1	6,874999963E-3	1,168750040E-2
2,089004823E1	-1,285624951E-1	-7,012499962E-3	-5,362499971E-3
2,091021078E1	-4,771250114E-2	-6,764999777E-2	3,616249934E-2
2,093037324E1	6,833750010E-2	-1,102750003E-1	1,181124970E-1
2,095053569E1	1,002374962E-1	-1,473999918E-1	1,596374959E-1
2,097069815E1	1,150875017E-1	-9,006249905E-2	2,287999988E-1
2,099086084E1	1,831499934E-1	-3,464999795E-2	3,096500039E-1
2,101102328E1	1,736624986E-1	3,135000169E-2	2,798124850E-1
2,103118574E1	-3,602499887E-2	6,531249732E-2	6,173750013E-2
2,105134820E1	-2,605625093E-1	2,260500044E-1	-1,468500048E-1
2,107151074E1	-4,680500031E-1	3,250499964E-1	-2,117500007E-1
2,109167344E1	-5,522000194E-1	3,154250085E-1	-1,883749962E-1
2,111183568E1	-5,553625226E-1	1,782000065E-1	-1,787499934E-1
2,113199836E1	-3,988874853E-1	6,641250104E-2	-1,277374923E-1
2,115216084E1	-2,403499931E-1	-4,812499974E-3	-1,331000030E-1
2,117232361E1	-9,776250273E-2	-6,132499874E-2	-1,670625061E-1
2,119248587E1	5,499999970E-3	-3,575000167E-2	-1,777874976E-1
2,121264833E1	8,662499487E-3	-2,502499893E-2	-1,181124970E-1
2,123281104E1	4,482499883E-2	-5,912499968E-3	1,374999993E-2
2,125297353E1	5,224999785E-2	8,882500231E-2	1,787499934E-1
2,127313608E1	-1,691249944E-2	6,531249732E-2	3,128125072E-1
2,129329856E1	-4,124999978E-3	1,175625026E-1	3,107500076E-1
2,131346122E1	-9,624999948E-4	1,313125044E-1	2,171124965E-1
2,133362367E1	4,592499882E-2	7,287500054E-2	1,500124931E-1
2,135378614E1	1,352999955E-1	-1,237499993E-2	4,468749836E-2
2,137394868E1	1,214125007E-1	-5,912499875E-2	-5,637500063E-2
2,139411114E1	2,066625059E-1	-6,338749826E-2	-1,436875015E-1
2,141427382E1	2,726624906E-1	-9,844999760E-2	-1,894749999E-1
2,143443628E1	2,949374914E-1	-2,296249941E-2	-1,564749926E-1
2,145459872E1	2,311374992E-1	4,509999976E-2	-3,726249933E-2
2,147476125E1	2,012999952E-1	1,025749967E-1	9,790000319E-2
2,149492373E1	1,150875017E-1	9,308750182E-2	1,733874977E-1
2,151508644E1	5,444999784E-2	8,456250280E-2	1,287000030E-1
2,153524891E1	7,466249913E-2	7,713750005E-2	9,679999948E-2
2,155541143E1	1,139874980E-1	5,788749829E-2	7,878749818E-2
2,157557389E1	1,427250057E-1	3,244999796E-2	5,857500061E-2
2,159573634E1	2,044624984E-1	2,612499986E-3	2,653750032E-2
2,161589903E1	1,853500009E-1	-8,043749630E-2	1,058750041E-2
2,163606149E1	1,907124966E-1	-1,038125008E-1	-1,704999991E-2
2,165622394E1	1,054624990E-1	-5,486249924E-2	-6,916250288E-2
2,167638643E1	9,762499481E-3	3,451250121E-2	-4,468749836E-2
2,169654895E1	-8,813749999E-2	8,139999956E-2	6,806249917E-2
2,171671140E1	-1,073874980E-1	8,139999956E-2	1,446499974E-1
2,173687416E1	-7,755000144E-2	5,898749828E-2	1,522125006E-1
2,175703655E1	-1,787500083E-2	6,874999963E-3	6,063750014E-2
2,177719910E1	6,833750010E-2	-3,891250119E-2	-3,519999981E-2
2,179736180E1	1,480875015E-1	4,124999978E-4	-8,621250093E-2
2,181752402E1	1,193500012E-1	-3,464999795E-2	-1,234750003E-1
2,183768673E1	9,597499669E-2	-4,317500070E-2	-1,297999918E-1
2,185784922E1	1,108250022E-1	-8,896250278E-2	-9,790000319E-2
2,187801168E1	1,577125043E-1	-1,484999955E-1	-1,171500012E-1
2,189817423E1	1,810874939E-1	-2,261874974E-1	-1,937374920E-1
2,191833670E1	1,853500009E-1	-1,953874975E-1	-2,245374918E-1
2,193849940E1	9,693749994E-2	-8,153750002E-2	-2,479124963E-1
2,195866186E1	-3,492499888E-2	-1,443750039E-2	-1,989624947E-1
2,197882431E1	-5,087500066E-2	-5,279999971E-2	-1,223749965E-1
2,199898684E1	-6,159999967E-2	-1,431374997E-1	-1,138499975E-1
2,201914930E1	-8,181250095E-2	-9,528750181E-2	-2,213750035E-1
2,203931174E1	-6,682500243E-2	-5,912499875E-2	-2,171124965E-1
2,205947442E1	-7,328750193E-2	-7,301250100E-2	-1,713249981E-1
2,207963690E1	-1,828749925E-1	-4,633750021E-2	-2,415875047E-1
2,209979945E1	-2,286625057E-1	-1,553750038E-2	-2,788499892E-1
2,211996190E1	-1,392875016E-1	-5,169999972E-2	-2,352624983E-1
2,214012458E1	3,959999979E-2	-9,844999760E-2	-1,234750003E-1
2,216028712E1	1,714625061E-1	-1,112374961E-1	4,262499977E-3
2,218044949E1	1,427250057E-1	-6,228749827E-2	6,283749640E-2
2,220061203E1	2,997500077E-2	-4,427500069E-2	1,801249944E-2
2,222077448E1	-1,044999994E-2	-1,570249945E-1	-5,541250110E-2
2,224093696E1	6,187500060E-2	-2,187625021E-1	-1,266375035E-1
2,226109966E1	1,577125043E-1	-2,666125000E-1	-1,245749965E-1
2,228126213E1	1,864500046E-1	-1,399749964E-1	5,953750014E-2
2,230142458E1	9,061250091E-2	-4,853750020E-2	1,937374920E-1
2,232158712E1	-4,661250114E-2	-1,869999990E-2	2,160124928E-1
2,234174981E1	-7,755000144E-2	-2,832499892E-2	1,319999993E-1
2,236191228E1	-1,083500013E-1	-1,553750038E-2	3,162499983E-3
2,238207472E1	-8,387500048E-2	4,674999975E-3	4,358749837E-2
2,240223728E1	-2,007500082E-2	-3,684999794E-2	1,574375033E-1
2,242239972E1	-6,366249919E-2	-6,558749825E-2	2,011625022E-1
2,244256240E1	-9,129999578E-2	-6,655000150E-2	1,607374996E-1
2,246272485E1	-7,961250097E-2	-7,301250100E-2	2,983750030E-2
2,248288732E1	-8,387500420E-3	-6,971249729E-2	-3,836249933E-2
2,250304986E1	9,803749621E-2	-1,325500011E-1	-2,241249941E-2
2,252321232E1	1,810874939E-1	-1,751749963E-1	1,058750041E-2
2,254337469E1	2,087250054E-1	-1,229249984E-1	6,063750014E-2
2,256353724E1	1,608749926E-1	-3,575000167E-2	4,152499884E-2
2,258369969E1	1,044999957E-1	6,874999963E-3	-3,162499983E-3
2,260386216E1	5,128749833E-2	4,193750024E-2	-4,042499885E-2
2,262402486E1	-2,749999985E-2	5,266249925E-2	-4,262499884E-2
2,264418734E1	2,351249941E-2	3,987500072E-2	4,675000161E-2
2,266435012E1	1,694000065E-1	-3,575000167E-2	1,702249944E-1
2,268451236E1	2,938374877E-1	-1,410750002E-1	2,319625020E-1
2,270467483E1	2,960374951E-1	-1,314499974E-1	2,510749996E-1
2,272483754E1	2,800875008E-1	-1,553750038E-2	2,447499931E-1
2,274500001E1	2,278375030E-1	1,398375034E-1	2,501125038E-1
2,276516247E1	1,480875015E-1	2,729375064E-1	1,659625024E-1
2,278532501E1	8,428750187E-2	2,186249942E-1	6,916250288E-2
2,280548746E1	1,352999955E-1	1,270499974E-1	3,189999983E-2
2,282565015E1	1,406625062E-1	1,003750041E-2	-2,199999988E-3
2,284581262E1	9,913749993E-2	-2,406249940E-2	-4,784999788E-2
2,286597508E1	2,887500077E-2	-3,258749843E-2	-8,937499672E-2
2,288613757E1	-6,476250291E-2	-1,553750038E-2	-1,373624951E-1
2,290630004E1	-1,700875014E-1	4,936249927E-2	-5,857500061E-2
2,292646271E1	-2,318249941E-1	4,936249927E-2	2,227500081E-2
2,294662496E1	-2,073500007E-1	1,003750041E-2	-1,388750039E-2
2,296678764E1	-1,839749962E-1	-5,279999971E-2	-9,583749622E-2
2,298695014E1	-1,988250017E-1	-1,006499976E-1	-1,809500009E-1
2,300711267E1	-2,147749960E-1	-1,186624989E-1	-2,788499892E-1
2,302727511E1	-2,382874936E-1	-1,155000031E-1	-2,362249941E-1
2,304743782E1	-1,487749964E-1	-7,081250101E-2	-4,358749837E-2
2,306760027E1	-4,771250114E-2	-8,153750002E-2	1,244374961E-1
2,308776274E1	-1,264999993E-2	-1,282874942E-1	1,511124969E-1
2,310792523E1	-8,497499675E-2	-1,390125006E-1	1,075249985E-1
2,312808776E1	-1,094499975E-1	-1,049124971E-1	4,895000160E-2
2,314825021E1	-1,307625026E-1	-6,544999778E-2	3,079999983E-2
2,316841290E1	-1,020250022E-1	-2,832499892E-2	1,489125043E-1
2,318857536E1	-7,961250097E-2	-4,097500071E-2	2,926000059E-1
2,320873781E1	-3,286249936E-2	-4,097500071E-2	3,064875007E-1
2,322890034E1	-9,624999948E-4	-6,022499874E-2	2,341624945E-1
2,324906278E1	1,512499992E-2	-1,127499994E-2	9,899999946E-2
2,326922546E1	8,662499487E-3	5,472499877E-2	8,524999954E-3
2,328938800E1	2,461249940E-2	8,772499859E-2	4,784999788E-2
2,330955046E1	4,702499881E-2	1,636249945E-2	1,234750003E-1
2,332971292E1	4,372499883E-2	-3,849999979E-3	7,548750192E-2
2,334987558E1	2,681249939E-2	-2,076249942E-2	1,374999993E-2
2,337003806E1	5,444999784E-2	-5,059999973E-2	-5,115000159E-2
2,339020062E1	1,193500012E-1	-3,891250119E-2	-6,063750014E-2
2,341036309E1	1,065625027E-1	-4,097500071E-2	-2,667500079E-2
2,343052558E1	-2,859999985E-2	-3,849999979E-3	-2,447500080E-2
2,345068831E1	-2,435124964E-1	8,662500232E-2	-5,967500061E-2
2,347085055E1	-3,638249934E-1	1,420374960E-1	-3,836249933E-2
2,349101326E1	-3,957250118E-1	1,058750004E-1	5,431250110E-2
2,351117574E1	-2,946625054E-1	8,236250281E-2	1,075249985E-1
2,353133820E1	-2,010249943E-1	2,612499986E-3	6,173750013E-2
2,355150076E1	-1,606000066E-1	-3,464999795E-2	-1,099999994E-3
2,357166322E1	-1,339250058E-1	-2,502499893E-2	-3,946249932E-2
2,359182566E1	-1,498750001E-1	-5,279999971E-2	-8,937499672E-2
2,361198838E1	-2,030874938E-1	-2,406249940E-2	-1,830125004E-1
2,363215083E1	-2,232999951E-1	1,512499992E-3	-1,830125004E-1
2,365231328E1	-2,307250053E-1	4,619999975E-2	-1,021625027E-1
2,367247580E1	-1,381874979E-1	6,118749827E-2	-3,093750030E-2
2,369263822E1	-5,733750015E-2	-4,317500070E-2	-7,232499868E-2
2,371280068E1	-2,859999985E-2	-1,069749966E-1	-2,107875049E-1
2,373296338E1	-4,771250114E-2	-3,684999794E-2	-2,564375103E-1
2,375312583E1	-8,923749626E-2	5,472499877E-2	-1,522125006E-1
2,377328829E1	-7,644999772E-2	4,839999974E-2	-4,784999788E-2
2,379345082E1	-3,712499887E-2	-1,869999990E-2	9,253749996E-2
2,381361328E1	4,399999976E-3	-1,553750038E-2	2,106499970E-1
2,383377574E1	1,608750038E-2	-6,544999778E-2	2,021249980E-1
2,385393842E1	2,254999988E-2	-7,081250101E-2	6,063750014E-2
2,387410088E1	3,629999980E-2	-9,006249905E-2	-9,624999948E-3
2,389426334E1	1,023000032E-1	-1,208624989E-1	3,299999982E-2
2,391442589E1	1,534499973E-1	-1,612875015E-1	4,358749837E-2
2,393458835E1	1,299374998E-1	-2,006125003E-1	2,873750031E-2
2,395475102E1	1,321374923E-1	-1,931875050E-1	7,122500241E-2
2,397491348E1	1,023000032E-1	-1,815000027E-1	5,747500062E-2
2,399507596E1	6,297499686E-2	-1,592250019E-1	-2,557500079E-2
2,401523841E1	5,761250108E-2	-1,271875054E-1	-7,452499866E-2
2,403540096E1	3,313750029E-2	-5,802499875E-2	-1,212750003E-1
2,405556365E1	3,739999980E-2	-1,759999990E-2	-1,787499934E-1
2,407572609E1	2,777500078E-2	-6,544999778E-2	-1,777874976E-1
2,409588855E1	3,533750027E-2	-6,132499874E-2	-1,575749964E-1
2,411605108E1	6,613750011E-2	-1,038125008E-1	-1,297999918E-1
2,413621355E1	6,297499686E-2	-1,080750003E-1	-1,542750001E-1
2,415637601E1	9,377499670E-2	-7,191249728E-2	-1,128875017E-1
2,417653871E1	1,023000032E-1	-2,928750031E-2	-6,916250288E-2
2,419670094E1	8,635000139E-2	-2,749999985E-3	-6,819999963E-2
2,421686365E1	2,144999988E-2	7,974999957E-3	-6,916250288E-2
2,423702611E1	4,056249931E-2	-8,112499490E-3	-2,131249942E-2
2,425718865E1	4,908749834E-2	-2,832499892E-2	4,262499977E-3
2,427735113E1	6,819999963E-2	-5,059999973E-2	3,726249933E-2
2,429751381E1	6,613750011E-2	-1,759999990E-2	3,189999983E-2
2,431767627E1	5,651250109E-2	2,612499986E-3	1,374999993E-2
2,433783873E1	6,297499686E-2	-3,671250120E-2	3,506249934E-2
2,435800121E1	1,225124970E-1	-6,655000150E-2	1,223749965E-1
2,437816372E1	1,417624950E-1	-1,282874942E-1	1,798499972E-1
2,439832617E1	1,577125043E-1	-9,322500229E-2	1,883749962E-1
2,441848883E1	1,310375035E-1	-1,869999990E-2	1,403875053E-1
2,443865128E1	1,310375035E-1	3,024999984E-2	5,211250111E-2
2,445881373E1	1,097249985E-1	6,751249731E-2	-9,624999948E-3
2,447897621E1	7,356250286E-2	1,025749967E-1	-8,524999954E-3
2,449913868E1	6,929999590E-2	4,729999974E-2	-3,093750030E-2
2,451930122E1	1,130250022E-1	1,856249943E-2	-3,189999983E-2
2,453946368E1	9,803749621E-2	4,303750023E-2	-2,447500080E-2
2,455962614E1	3,423750028E-2	6,957499683E-2	-7,026249915E-2
2,457978884E1	2,254999988E-2	1,227874979E-1	-9,790000319E-2
2,459995130E1	4,166249931E-2	1,707749963E-1	-9,363749623E-2
2,462011376E1	2,461249940E-2	1,292500049E-1	-6,710000336E-2
2,464027633E1	5,651250109E-2	9,404999763E-2	-8,524999954E-3
2,466043881E1	7,246249914E-2	3,451250121E-2	4,784999788E-2
2,468060153E1	1,193500012E-1	-3,464999795E-2	-4,262499977E-3
2,470076400E1	3,629999980E-2	-8,676250279E-2	-4,784999788E-2
2,472092654E1	-1,787500083E-2	-1,979999989E-2	-5,637500063E-2
2,474108900E1	-6,902500242E-2	6,215000153E-2	-8,304999769E-2
2,476125138E1	-1,541374922E-1	1,175625026E-1	-1,639000028E-1
2,478141414E1	-2,095499933E-1	1,016125008E-1	-1,607374996E-1
2,480157665E1	-2,019875050E-1	6,324999779E-2	-1,171500012E-1
2,482173912E1	-1,828749925E-1	-9,006249905E-2	-2,043250054E-1
2,484190181E1	-2,190375030E-1	-1,666499972E-1	-3,320625126E-1
2,486206428E1	-2,574000061E-1	-1,538625062E-1	-3,628624976E-1
2,488222672E1	-3,159750104E-1	5,774999969E-3	-1,958000064E-1
2,490238917E1	-3,052499890E-1	1,622499973E-1	-5,857500061E-2
2,492255169E1	-1,233374998E-1	7,177499682E-2	-6,599999964E-2
2,494271416E1	1,011999995E-1	1,539999992E-2	-9,679999948E-2
2,496287661E1	6,077500060E-2	-5,912499968E-3	-7,136250287E-2
2,498303932E1	3,849999979E-2	-2,296249941E-2	-2,983750030E-2
2,500320154E1	-1,787500083E-2	-4,207500070E-2	1,911249943E-2
2,502336423E1	-1,691249944E-2	-4,427500069E-2	7,026249915E-2
2,504352678E1	3,299999982E-3	1,512499992E-3	8,195000142E-2
2,506368917E1	8,662499487E-3	-3,671250120E-2	6,696250290E-2
2,508385175E1	-1,787500083E-2	-6,132499874E-2	3,726249933E-2
2,510401421E1	2,337499987E-3	-8,992499858E-2	1,168750040E-2
2,512417691E1	-8,813749999E-2	-1,271875054E-1	-1,095874980E-1
2,514433935E1	-1,222374961E-1	-1,240250021E-1	-1,416250020E-1
2,516450186E1	-1,233374998E-1	-1,176999956E-1	-1,245749965E-1
2,518466432E1	-7,864999771E-2	-1,271875054E-1	-1,809500009E-1
2,520482687E1	-8,607500046E-2	-1,495999992E-1	-1,649999917E-1
2,522498929E1	-6,792499870E-2	-1,293874979E-1	-1,234750003E-1
2,524515176E1	-4,881250113E-2	-1,527625024E-1	-4,895000160E-2
2,526531420E1	2,997500077E-2	-1,368124932E-1	5,747500062E-2
2,528547691E1	1,374999993E-4	-9,844999760E-2	9,473749995E-2
2,530563937E1	-4,344999790E-2	-3,671250120E-2	1,042250022E-1
2,532580189E1	-7,535000145E-2	-2,749999985E-3	1,648624986E-1
2,534596430E1	-4,124999978E-3	-2,502499893E-2	1,627999991E-1
2,536612699E1	-1,691249944E-2	-3,258749843E-2	1,691250056E-1
2,538628943E1	-4,344999790E-2	-3,671250120E-2	1,766874939E-1
2,540645190E1	-5,939999968E-2	-2,928750031E-2	7,768750191E-2
2,542661436E1	-9,350000322E-2	-1,127499994E-2	3,616249934E-2
2,544677689E1	2,887500077E-2	2,172499895E-2	3,079999983E-2
2,546693958E1	1,725624949E-1	-1,443750039E-2	9,679999948E-2
2,548710181E1	2,151875049E-1	-5,279999971E-2	6,696250290E-2
2,550726428E1	1,342000067E-1	-4,523750022E-2	7,232499868E-2
2,552742698E1	2,681249939E-2	-1,759999990E-2	1,500124931E-1
2,554758954E1	2,461249940E-2	2,392499894E-2	1,861750036E-1
2,556775202E1	4,798749834E-2	3,341250122E-2	1,894749999E-1
2,558791450E1	2,997500077E-2	6,751249731E-2	1,947000027E-1
2,560807696E1	2,887500077E-2	1,209999993E-2	1,691250056E-1
2,562823967E1	1,011999995E-1	-1,649999991E-3	1,287000030E-1
2,564840214E1	1,577125043E-1	-7,191249728E-2	1,542750001E-1
2,566856466E1	2,098249942E-1	-1,080750003E-1	1,872749925E-1
2,568872710E1	2,044624984E-1	-1,145374998E-1	2,436500043E-1
2,570888959E1	1,970375031E-1	-6,132499874E-2	2,873750031E-1
2,572905226E1	1,788875014E-1	5,774999969E-3	3,522749841E-1
2,574921470E1	1,885125041E-1	3,671250120E-2	3,650625050E-1
2,576937724E1	2,949374914E-1	2,598750032E-2	3,693250120E-1
2,578953992E1	4,311999977E-1	8,566249907E-2	3,224374950E-1
2,580970240E1	3,865124881E-1	1,856249943E-2	1,607374996E-1
2,582986487E1	2,534124851E-1	-2,928750031E-2	6,806249917E-2
2,585002740E1	1,896124929E-1	-1,649999991E-3	3,822499886E-2
2,587018989E1	1,299374998E-1	2,598750032E-2	3,409999982E-2
2,589035237E1	1,449249983E-1	5,774999969E-3	7,122500241E-2
2,591051505E1	2,066625059E-1	3,877500072E-2	4,042499885E-2
2,593067728E1	2,470874935E-1	7,493750006E-2	-2,337500080E-2
2,595084001E1	1,640374959E-1	1,175625026E-1	-5,211250111E-2
2,597100244E1	7,892499864E-2	9,308750182E-2	-4,468749836E-2
2,599116490E1	6,503749639E-2	1,047749966E-1	-5,747500062E-2
2,601132737E1	1,215500012E-1	1,153625026E-1	-1,288374960E-1
2,603148990E1	1,417624950E-1	1,036750004E-1	-1,585374922E-1
2,605165238E1	1,757249981E-1	5,266249925E-2	-1,937374920E-1
2,607181482E1	2,172500044E-1	-5,486249924E-2	-1,766874939E-1
2,609197750E1	1,278750002E-1	-1,979999989E-2	-2,224749923E-1
2,611213992E1	-1,105500013E-1	3,341250122E-2	-1,872749925E-1
2,613230248E1	-3,137750030E-1	7,383749634E-2	-1,436875015E-1
2,615246496E1	-3,074499965E-1	1,090374961E-1	-1,394249946E-1
2,617262766E1	-3,009875119E-1	6,751249731E-2	-1,373624951E-1
2,619279010E1	-2,542375028E-1	-3,148749843E-2	-1,649999917E-1
2,621295258E1	-1,051874980E-1	-1,333750039E-2	-1,447875053E-1
2,623311507E1	-3,808749840E-2	-2,076249942E-2	-1,713249981E-1
2,625327761E1	-6,159999967E-2	1,966249943E-2	-2,150499970E-1
2,627344008E1	-4,771250114E-2	4,193750024E-2	-2,213750035E-1
2,629360254E1	-2,639999986E-2	2,282499894E-2	-1,032624990E-1
2,631376524E1	5,761250108E-2	-1,979999989E-2	5,101250112E-2
2,633392772E1	4,166249931E-2	-8,896250278E-2	3,409999982E-2
2,635409024E1	-7,864999771E-2	-9,955000132E-2	-3,946249932E-2
2,637425269E1	-2,041874975E-1	-3,849999979E-3	-4,468749836E-2
2,639441540E1	-2,329249978E-1	-2,502499893E-2	-8,524999954E-3
2,641457784E1	-1,467124969E-1	-6,764999777E-2	-1,168750040E-2
2,643474031E1	-1,350249946E-1	4,124999978E-4	8,524999954E-3
2,645490285E1	-1,509750038E-1	-4,812499974E-3	-3,093750030E-2
2,647506532E1	-1,700875014E-1	-2,722499892E-2	-1,032624990E-1
2,649522779E1	-1,924999952E-1	-8,470000327E-2	-1,297999918E-1
2,651539025E1	-1,339250058E-1	-1,293874979E-1	-1,542750001E-1
2,653555292E1	-3,918749839E-2	-2,219250053E-1	-1,203124970E-1
2,655571539E1	6,407500058E-2	-2,560249865E-1	-6,806249917E-2
2,657587784E1	2,997500077E-2	-2,549250126E-1	-6,283749640E-2
2,659604039E1	-1,031249985E-1	-2,219250053E-1	-1,075249985E-1
2,661620284E1	-2,158749998E-1	-2,155999988E-1	-7,452499866E-2
2,663636551E1	-2,222000062E-1	-2,167000026E-1	-4,578749835E-2
2,665652800E1	-2,551999986E-1	-2,432374954E-1	-4,578749835E-2
2,667669046E1	-2,679874897E-1	-1,825999916E-1	-8,841250092E-2
2,669685292E1	-2,329249978E-1	-1,527625024E-1	-1,245749965E-1
2,671701547E1	-1,328250021E-1	-9,844999760E-2	-8,731249720E-2
2,673717794E1	1,237499993E-3	-9,955000132E-2	-4,784999788E-2
2,675734036E1	1,065625027E-1	-1,271875054E-1	-5,004999787E-2
2,677750305E1	1,087625027E-1	-1,857624948E-1	-2,021249942E-2
2,679766557E1	1,182499975E-1	-1,772374958E-1	6,696250290E-2
2,681782797E1	1,236125007E-1	-1,592250019E-1	1,394249946E-1
2,683799050E1	1,874125004E-1	-1,357125044E-1	2,223374993E-1
2,685815295E1	1,523499936E-1	-1,527625024E-1	2,543750107E-1
2,687831564E1	-2,323750034E-2	-3,258749843E-2	1,181124970E-1
2,689847809E1	-2,095499933E-1	6,751249731E-2	2,557500079E-2
2,691864055E1	-1,871374995E-1	1,270499974E-1	5,211250111E-2
2,693880310E1	-7,218749821E-2	1,887875050E-1	9,790000319E-2
2,695896555E1	-6,049999967E-2	2,325125039E-1	1,170125008E-1
2,697912825E1	-7,328750193E-2	1,121999994E-1	9,569999576E-2
2,699929069E1	-8,071249723E-2	3,712499980E-3	8,304999769E-2
2,701945315E1	7,246249914E-2	1,113750041E-2	1,095874980E-1
2,703961570E1	2,226125002E-1	1,016125008E-1	9,790000319E-2
2,705977808E1	2,704625130E-1	1,494625062E-1	1,277374923E-1
2,707994063E1	2,821500003E-1	2,111999989E-1	1,319999993E-1
2,710010308E1	2,172500044E-1	1,440999955E-1	1,212750003E-1
2,712026577E1	1,619749963E-1	9,308750182E-2	9,157499671E-2
2,714042824E1	-7,012499869E-2	1,292500049E-1	-1,058750041E-2
2,716059068E1	-2,349874973E-1	1,387374997E-1	-5,431250110E-2
2,718075325E1	-1,860374957E-1	6,751249731E-2	-4,688749835E-2
2,720091573E1	-1,051874980E-1	4,619999975E-2	-1,160499975E-1
2,722107846E1	-1,222374961E-1	-1,017499994E-2	-1,809500009E-1
2,724124090E1	-1,775124967E-1	-5,376249924E-2	-2,000624985E-1
2,726140345E1	-1,222374961E-1	-7,933750004E-2	-2,139499933E-1
2,728156618E1	-9,982500225E-2	-6,764999777E-2	-1,755875051E-1
2,730172863E1	-6,792499870E-2	4,124999978E-4	-1,043625027E-1
2,732189109E1	-3,066249937E-2	3,024999984E-2	-5,541250110E-2
2,734205364E1	-6,682500243E-2	8,662500232E-2	-3,409999982E-2
2,736221611E1	-9,982500225E-2	8,139999956E-2	7,342500240E-2
2,738237881E1	-3,602499887E-2	6,957499683E-2	1,117874980E-1
2,740254125E1	4,399999976E-3	6,435000151E-2	-2,557500079E-2
2,742270370E1	5,018749833E-2	1,249874979E-1	-1,809500009E-1
2,744286625E1	8,428750187E-2	2,080374956E-1	-2,191749960E-1
2,746302869E1	4,908749834E-2	2,367749959E-1	-3,011249900E-1
2,748319116E1	-7,328750193E-2	2,111999989E-1	-3,341250122E-1
2,750335363E1	-8,277499676E-2	1,313125044E-1	-2,469500005E-1
2,752351631E1	4,798749834E-2	-9,074999951E-3	-1,447875053E-1
2,754367856E1	1,321374923E-1	-1,325500011E-1	-1,203124970E-1
2,756384126E1	1,864500046E-1	-1,922249943E-1	-6,283749640E-2
2,758400371E1	1,907124966E-1	-2,017125040E-1	-3,519999981E-2
2,760416620E1	2,571249940E-2	-1,846625060E-1	-2,763750032E-2
2,762432895E1	-1,094499975E-1	-1,102750003E-1	1,911249943E-2
2,764449116E1	-9,459999949E-2	2,488750033E-2	1,021625027E-1
2,766465386E1	3,203750029E-2	1,643124968E-1	1,212750003E-1
2,768481632E1	2,337499987E-3	4,038375020E-1	-1,704999991E-2
2,770497880E1	-3,584625125E-1	3,282124996E-1	-2,469500005E-1
2,772514134E1	-4,851000011E-1	1,728374958E-1	-1,968999952E-1
2,774530382E1	-1,350249946E-1	5,156249925E-2	1,585374922E-1
2,776546629E1	1,651374996E-1	-3,575000167E-2	1,894749999E-1
2,778562901E1	1,182499975E-1	3,024999984E-2	-9,624999948E-3
2,780579148E1	1,460250020E-1	8,772499859E-2	5,747500062E-2
2,782595395E1	3,959999979E-1	7,383749634E-2	2,458499968E-1
2,784611650E1	3,768875003E-1	-2,928750031E-2	2,798124850E-1
2,786627897E1	8,318749815E-2	-7,191249728E-2	1,809500009E-1
2,788644142E1	-1,275999993E-1	-2,296249941E-2	2,202749997E-1
2,790660408E1	-5,733750015E-2	1,429999992E-2	3,320625126E-1
2,792676652E1	-1,126125008E-1	2,345750034E-1	1,852124929E-1
2,794692904E1	-2,212374955E-1	2,814624906E-1	-1,564749926E-1
2,796709149E1	-2,073500007E-1	1,845249981E-1	-2,139499933E-1
2,798725399E1	-4,771250114E-2	1,068374962E-1	-1,522125006E-1
2,800741668E1	-2,543750033E-2	-5,596249923E-2	-1,394249946E-1
2,802757911E1	8,318749815E-2	-2,272875011E-1	-4,262499977E-3
2,804774164E1	2,651000023E-1	-3,348124921E-1	2,160124928E-1
2,806790402E1	3,843125105E-1	-3,348124921E-1	2,883374989E-1
2,808806657E1	1,363999993E-1	-1,985500008E-1	1,733874977E-1
2,810822904E1	-6,049999967E-2	8,662500232E-2	9,569999576E-2
2,812839175E1	-1,062875018E-1	1,759999990E-1	1,319999993E-1
2,814855423E1	-1,094499975E-1	2,292124927E-1	1,372250021E-1
2,816871666E1	-2,243999988E-1	2,080374956E-1	7,026249915E-2
2,818887921E1	-1,817750037E-1	1,654125005E-1	9,624999948E-3
2,820904168E1	-1,062875018E-1	1,185249984E-1	-9,047500044E-2
2,822920437E1	-5,623750016E-2	1,079374999E-1	-1,649999917E-1
2,824936683E1	-4,028749838E-2	1,537249982E-1	-2,310000062E-1
2,826952937E1	-2,117500082E-2	9,624999762E-2	-1,618375033E-1
2,828969181E1	3,313750029E-2	2,062499896E-2	-3,946249932E-2
2,830985451E1	-6,187499966E-3	-7,191249728E-2	2,227500081E-2
2,833001695E1	-5,843750015E-2	-5,376249924E-2	5,004999787E-2
2,835017942E1	-5,513750017E-2	-1,443750039E-2	1,010624990E-1
2,837034199E1	1,086249948E-2	-3,038750030E-2	1,947000027E-1
2,839050443E1	1,130250022E-1	-3,258749843E-2	2,660624981E-1
2,841066690E1	1,523499936E-1	-3,781250119E-2	2,723875046E-1
2,843082936E1	1,523499936E-1	-5,706249923E-2	2,276999950E-1
2,845099183E1	7,672499865E-2	-6,228749827E-2	1,340624988E-1
2,847115454E1	1,139874980E-1	-6,655000150E-2	7,768750191E-2
2,849131700E1	1,150875017E-1	1,636249945E-2	4,468749836E-2
2,851147949E1	1,204499975E-1	-1,017499994E-2	5,321250111E-2
2,853164202E1	8,318749815E-2	-4,207500070E-2	2,873750031E-2
2,855180449E1	-5,939999968E-2	2,818750031E-2	-1,168750040E-2
2,857196721E1	-8,923749626E-2	3,712499980E-3	-6,063750014E-2
2,859212965E1	-2,007500082E-2	1,966249943E-2	-3,189999983E-2
2,861229219E1	4,399999976E-3	1,313125044E-1	-2,873750031E-2
2,863245466E1	3,299999982E-3	1,292500049E-1	4,262499977E-3
2,865261714E1	9,487500042E-2	7,383749634E-2	9,363749623E-2
2,867277990E1	7,356250286E-2	2,612499986E-3	6,916250288E-2
2,869294228E1	3,533750027E-2	-5,802499875E-2	-2,447500080E-2
2,871310475E1	1,247124970E-1	-6,338749826E-2	-3,836249933E-2
2,873326725E1	8,208750188E-2	-5,486249924E-2	-8,304999769E-2
2,875342969E1	3,849999979E-2	-3,464999795E-2	-3,189999983E-2
2,877359239E1	-4,344999790E-2	-3,148749843E-2	8,291249722E-2
2,879375483E1	-1,691249944E-2	-1,759999990E-2	9,047500044E-2
2,881391728E1	-7,328750193E-2	2,488750033E-2	3,189999983E-2
2,883407981E1	-1,328250021E-1	4,413750023E-2	-5,637500063E-2
2,885424227E1	-1,126125008E-1	7,493750006E-2	-1,095874980E-1
2,887440473E1	-7,755000144E-2	8,937500417E-3	-4,895000160E-2
2,889456741E1	-4,124999978E-3	8,937500417E-3	-4,042499885E-2
2,891472990E1	-4,344999790E-2	-3,849999979E-3	-1,594999991E-2
2,893489240E1	-2,639999986E-2	-1,223750040E-2	-1,704999991E-2
2,895505494E1	1,237499993E-3	1,512499992E-3	-6,916250288E-2
2,897521743E1	2,997500077E-2	2,488750033E-2	-8,841250092E-2
2,899538015E1	2,337499987E-3	4,729999974E-2	-9,473749995E-2
2,901554236E1	1,512499992E-2	6,641250104E-2	-4,578749835E-2
2,903570506E1	5,981250107E-2	8,937500417E-3	8,291249722E-2
2,905586759E1	1,023000032E-1	-1,759999990E-2	1,075249985E-1
2,907603002E1	7,782500237E-2	-8,112499490E-3	4,675000161E-2
2,909619248E1	8,635000139E-2	6,008749828E-2	-1,388750039E-2
2,911635516E1	5,761250108E-2	5,156249925E-2	-5,857500061E-2
2,913651768E1	-1,691249944E-2	-3,464999795E-2	-7,562500238E-2
2,915668011E1	7,562499959E-3	-7,507500052E-2	-9,679999948E-2
2,917684255E1	-9,349999949E-3	-1,410750002E-1	-1,416250020E-1
2,919700521E1	-3,066249937E-2	-1,549624950E-1	-1,596374959E-1
2,921716765E1	-5,224999972E-3	-1,410750002E-1	-1,703625023E-1
2,923733010E1	-2,213750035E-2	-1,208624989E-1	-1,255374998E-1
2,925749258E1	-4,235000163E-2	-4,317500070E-2	-5,004999787E-2
2,927765510E1	1,237499993E-3	8,937500417E-3	3,189999983E-2
2,929781779E1	-1,062875018E-1	-5,499999970E-4	6,599999964E-2
2,931798025E1	-1,275999993E-1	5,266249925E-2	3,299999982E-2
2,933814272E1	-2,232999951E-1	1,223750040E-2	-1,099999994E-3
2,935830519E1	-2,127124965E-1	1,319999993E-2	-2,983750030E-2
2,937846773E1	-1,424500048E-1	1,636249945E-2	1,801249944E-2
2,939863022E1	-2,433750033E-2	1,223750040E-2	6,173750013E-2
2,941879267E1	2,681249939E-2	2,172499895E-2	6,599999964E-2
2,943895536E1	-2,749999985E-2	-5,912499968E-3	8,084999770E-2
2,945911784E1	-5,513750017E-2	-4,427500069E-2	5,953750014E-2
2,947928028E1	1,374999993E-4	-6,544999778E-2	1,403875053E-1
2,949944280E1	8,635000139E-2	-5,169999972E-2	1,648624986E-1
2,951960526E1	1,267749965E-1	-8,470000327E-2	1,479499936E-1
2,953976794E1	1,480875015E-1	-6,132499874E-2	1,872749925E-1
2,955993042E1	1,544124931E-1	-3,148749843E-2	1,861750036E-1
2,958009288E1	1,108250022E-1	1,429999992E-2	1,095874980E-1
2,960025542E1	5,871250108E-2	1,429999992E-2	5,101250112E-2
2,962041788E1	6,077500060E-2	5,266249925E-2	6,916250288E-2
2,964058031E1	2,681249939E-2	1,966249943E-2	4,358749837E-2
2,966074278E1	7,562499959E-3	-2,406249940E-2	4,675000161E-2
2,968090549E1	8,428750187E-2	-5,499999970E-4	-3,162499983E-3
2,970106797E1	7,246249914E-2	2,708750032E-2	-7,452499866E-2
2,972123051E1	2,337499987E-3	9,624999762E-2	-1,457500011E-1
2,974139297E1	-1,361249946E-2	2,392499894E-2	-9,253749996E-2
2,976155567E1	-4,455000162E-2	-1,443750039E-2	-1,388750039E-2
2,978171821E1	-1,350249946E-1	-5,279999971E-2	-2,447500080E-2
2,980188067E1	-1,137124971E-1	-3,148749843E-2	-9,790000319E-2
2,982204312E1	-1,105500013E-1	-1,038125008E-1	-9,363749623E-2
2,984220578E1	-9,033749998E-2	-1,333750039E-2	-1,575749964E-1
2,986236824E1	-9,349999949E-3	8,456250280E-2	-6,710000336E-2
2,988253080E1	5,444999784E-2	9,735000134E-2	9,790000319E-2
2,990269325E1	3,107500076E-2	7,383749634E-2	1,351625025E-1
2,992285570E1	4,166249931E-2	1,539999992E-2	1,852124929E-1
2,994301835E1	1,054624990E-1	-2,612499893E-2	7,122500241E-2
2,996318081E1	1,310375035E-1	-1,017499994E-2	-4,784999788E-2
2,998334327E1	1,916749924E-1	9,088750184E-2	-6,710000336E-2
3,000350574E1	2,215124965E-1	6,531249732E-2	-2,199999988E-3
3,002366828E1	1,460250020E-1	2,818750031E-2	3,189999983E-2
3,004383073E1	2,254999988E-2	-7,397499681E-2	-9,624999948E-3
3,006399321E1	-6,476250291E-2	-9,418749809E-2	-5,004999787E-2
3,008415568E1	8,662499487E-3	-8,043749630E-2	-7,988750190E-2
3,010431837E1	8,428750187E-2	-5,376249924E-2	-1,278750040E-2
3,012448084E1	1,469874978E-1	-1,443750039E-2	3,932499886E-2
3,014464330E1	6,297499686E-2	5,266249925E-2	4,248749837E-2
3,016480608E1	-2,433750033E-2	7,809999585E-2	8,827500045E-2
3,018496833E1	-1,787500083E-2	8,882500231E-2	9,996250272E-2
3,020513103E1	-1,897500083E-2	8,992499858E-2	-1,498750038E-2
3,022529348E1	-5,307500064E-2	9,515000135E-2	-6,819999963E-2
3,024545593E1	-3,602499887E-2	1,746249944E-2	-5,115000159E-2
3,026561868E1	3,629999980E-2	-5,706249923E-2	-3,726249933E-2
3,028578114E1	-4,661250114E-2	-6,228749827E-2	-1,171500012E-1
3,030594363E1	-6,256250292E-2	-2,406249940E-2	-1,618375033E-1
3,032610608E1	-7,287499961E-3	1,512499992E-3	-1,458874941E-1
3,034626854E1	1,172875017E-1	5,582499877E-2	-8,304999769E-2
3,036643107E1	8,855000138E-2	8,346249908E-2	-4,262499977E-3
3,038659374E1	5,555000156E-2	8,882500231E-2	8,524999954E-3
3,040675598E1	-5,623750016E-2	3,671250120E-2	-2,763750032E-2
3,042691868E1	-1,977249980E-1	-9,074999951E-3	-4,468749836E-2
3,044708124E1	-6,049999967E-2	-4,949999973E-2	-2,763750032E-2
3,046724365E1	-4,124999978E-3	-6,338749826E-2	-3,946249932E-2
3,048740617E1	1,374999993E-4	-1,080750003E-1	-8,084999770E-2
3,050756863E1	-5,197500065E-2	-1,410750002E-1	1,099999994E-3
3,052773136E1	-5,733750015E-2	-9,102500230E-2	3,822499886E-2
3,054789382E1	-1,094499975E-1	-5,169999972E-2	9,363749623E-2
3,056805630E1	-1,094499975E-1	8,882500231E-2	5,527500063E-2
3,058821883E1	-8,181250095E-2	1,505624950E-1	3,616249934E-2
3,060838130E1	-7,438749820E-2	1,654125005E-1	-1,000999957E-1
3,062854398E1	-1,392875016E-1	7,287500054E-2	-1,618375033E-1
3,064870645E1	-1,190750003E-1	-9,074999951E-3	-1,416250020E-1
3,066886894E1	-8,703749627E-2	-9,074999951E-3	-1,203124970E-1
3,068903145E1	-2,859999985E-2	-1,649999991E-3	-4,784999788E-2
3,070919390E1	8,855000138E-2	6,008749828E-2	7,026249915E-2
3,072935637E1	1,267749965E-1	3,561250120E-2	2,106499970E-1
3,074951915E1	1,363999993E-1	-1,759999990E-2	2,968625128E-1
3,076968159E1	4,798749834E-2	-9,844999760E-2	2,777499855E-1
3,078984406E1	1,033999994E-1	-1,123374999E-1	1,659625024E-1
3,081000676E1	2,257750034E-1	-4,317500070E-2	9,996250272E-2
3,083016922E1	2,747249901E-1	3,877500072E-2	7,342500240E-2
3,085033170E1	2,439250052E-1	1,313125044E-1	6,916250288E-2
3,087049423E1	3,629999980E-2	5,472499877E-2	1,594999991E-2
3,089065670E1	-7,755000144E-2	6,874999963E-3	3,822499886E-2
3,091081916E1	-3,492499888E-2	-4,853750020E-2	1,374999993E-2
3,093098187E1	5,444999784E-2	-9,528750181E-2	-9,473749995E-2
3,095114432E1	1,402499992E-2	4,303750023E-2	-1,820500046E-1
3,097130685E1	-7,108750194E-2	9,198749810E-2	-9,679999948E-2
3,099146924E1	-6,366249919E-2	1,249874979E-1	1,801249944E-2
3,101163178E1	-2,213750035E-2	5,472499877E-2	1,484999992E-2
3,103179446E1	5,651250109E-2	3,987500072E-2	-4,152499884E-2
3,105195694E1	2,461249940E-2	4,936249927E-2	-1,095874980E-1
3,107211947E1	5,224999785E-2	1,539999992E-2	-7,878749818E-2
3,109228192E1	1,119249985E-1	1,636249945E-2	-3,616249934E-2
3,111244438E1	1,139874980E-1	2,818750031E-2	2,021249942E-2
3,113260683E1	8,098749816E-2	5,582499877E-2	1,374999993E-2
3,115276947E1	3,299999982E-3	5,046249926E-2	-9,624999948E-3
3,117293195E1	8,662499487E-3	3,244999796E-2	-1,911249943E-2
3,119309442E1	4,056249931E-2	4,413750023E-2	-1,594999991E-2
3,121325697E1	5,335000157E-2	3,561250120E-2	-4,688749835E-2
3,123341943E1	1,828750037E-2	-5,912499875E-2	-1,099999994E-3
3,125358189E1	2,144999988E-2	-6,022499874E-2	4,152499884E-2
3,127374454E1	5,444999784E-2	-1,091749966E-1	5,637500063E-2
3,129390703E1	7,672499865E-2	-2,722499892E-2	7,424999960E-3
3,131406958E1	1,512499992E-2	4,303750023E-2	-1,704999991E-2
3,133423202E1	-2,859999985E-2	1,079374999E-1	-5,004999787E-2
3,135439448E1	-4,881250113E-2	-5,912499968E-3	-8,511249721E-2
3,137455718E1	-1,062875018E-1	-5,912499968E-3	-1,436875015E-1
3,139471973E1	-2,116124928E-1	6,874999963E-3	-1,681624949E-1
3,141488218E1	-2,477750033E-1	3,877500072E-2	-1,766874939E-1
3,143504466E1	-1,988250017E-1	7,603749633E-2	-1,255374998E-1
3,145520734E1	-1,999250054E-1	1,164624989E-1	-1,160499975E-1
3,147536980E1	-1,359875053E-1	7,919999957E-2	-9,790000319E-2
3,149553236E1	-7,644999772E-2	-2,502499893E-2	-8,415000141E-2
3,151569483E1	-1,137124971E-1	-6,228749827E-2	-9,899999946E-2
3,153585730E1	-1,541374922E-1	-1,759999990E-2	-8,731249720E-2
3,155601995E1	-1,137124971E-1	-4,097500071E-2	-0,000000000E0
3,157618240E1	3,739999980E-2	-1,759999990E-2	8,511249721E-2
3,159634494E1	1,237499993E-3	-4,001250118E-2	8,731249720E-2
3,161650741E1	-9,459999949E-2	-2,076249942E-2	3,409999982E-2
3,163667008E1	-9,459999949E-2	-5,169999972E-2	-1,704999991E-2
3,165683256E1	-5,513750017E-2	-3,258749843E-2	-8,415000141E-2
3,167699499E1	-7,012499869E-2	-2,076249942E-2	-2,193125039E-1
3,169715753E1	-8,607500046E-2	-6,764999777E-2	-3,214749992E-1
3,171732002E1	-4,138749838E-2	-4,097500071E-2	-2,554749846E-1
3,173748252E1	1,237499993E-3	1,223750040E-2	-1,181124970E-1
3,175764521E1	1,924999990E-2	4,083750024E-2	-6,489999592E-2
3,177780768E1	1,608750038E-2	4,124999978E-4	-3,726249933E-2
3,179797013E1	2,571249940E-2	1,113750041E-2	-1,388750039E-2
3,181813269E1	1,002374962E-1	-2,076249942E-2	4,042499885E-2
3,183829539E1	1,247124970E-1	-5,059999973E-2	1,351625025E-1
3,185845786E1	6,187500060E-2	-1,553750038E-2	1,883749962E-1
3,187862032E1	1,402499992E-2	-1,553750038E-2	1,362625062E-1
3,189878283E1	-6,159999967E-2	3,451250121E-2	6,696250290E-2
3,191894551E1	9,762499481E-3	8,139999956E-2	3,189999983E-2
3,193910775E1	4,798749834E-2	4,674999975E-3	3,822499886E-2
3,195927044E1	1,182499994E-2	6,874999963E-3	9,253749996E-2
3,197943291E1	-8,387500420E-3	-4,523750022E-2	1,564749926E-1
3,199959545E1	-1,264999993E-2	-5,596249923E-2	1,841125041E-1
3,201975816E1	-6,586249918E-2	3,561250120E-2	7,452499866E-2
3,203992062E1	-4,564999789E-2	8,772499859E-2	4,895000160E-2
3,206008308E1	3,203750029E-2	1,175625026E-1	8,511249721E-2
3,208024561E1	-2,859999985E-2	9,941250086E-2	9,143749624E-2
3,210040807E1	-5,087500066E-2	6,215000153E-2	-1,388750039E-2
3,212057074E1	-2,117500082E-2	-3,849999979E-3	-8,195000142E-2
3,214073323E1	1,828750037E-2	-4,633750021E-2	-1,553750038E-1
3,216089578E1	2,887500077E-2	-4,949999973E-2	-2,202749997E-1
3,218105822E1	3,629999980E-2	-6,448750198E-2	-2,182125002E-1
3,220122091E1	-9,624999948E-4	-5,499999970E-4	-1,659625024E-1
3,222138337E1	3,849999979E-2	9,088750184E-2	-8,195000142E-2
3,224154589E1	3,423750028E-2	7,603749633E-2	-4,784999788E-2
3,226170857E1	1,938750036E-2	3,451250121E-2	-5,747500062E-2
3,228187103E1	-3,602499887E-2	-2,722499892E-2	-1,704999991E-2
3,230203358E1	-9,624999948E-4	-6,338749826E-2	4,468749836E-2
3,232219628E1	-2,433750033E-2	-5,499999970E-4	1,351625025E-1
3,234235871E1	-3,918749839E-2	5,582499877E-2	2,000624985E-1
3,236252116E1	-3,918749839E-2	6,531249732E-2	1,681624949E-1
3,238268362E1	-6,159999967E-2	7,919999957E-2	1,032624990E-1
3,240284614E1	-1,471249945E-2	5,582499877E-2	7,878749818E-2
3,242300862E1	4,166249931E-2	1,113750041E-2	5,004999787E-2
3,244317110E1	1,586750001E-1	-7,191249728E-2	1,489125043E-1
3,246333356E1	2,769249976E-1	-1,240250021E-1	1,574375033E-1
3,248349626E1	1,853500009E-1	-5,486249924E-2	9,047500044E-2
3,250365873E1	-8,277499676E-2	6,324999779E-2	-3,726249933E-2
3,252382148E1	-1,435499936E-1	8,978749812E-2	-6,379999965E-2
3,254398369E1	-5,829999968E-2	3,657500073E-2	-5,321250111E-2
3,256414638E1	1,237499993E-3	-1,759999990E-2	-5,004999787E-2
3,258430886E1	-5,197500065E-2	-6,558749825E-2	-3,409999982E-2
3,260447132E1	-8,181250095E-2	-4,523750022E-2	-2,241249941E-2
3,262463408E1	-9,033749998E-2	-6,971249729E-2	-2,337500080E-2
3,264479632E1	-3,808749840E-2	-2,186249942E-2	-3,519999981E-2
3,266495899E1	4,702499881E-2	-7,933750004E-2	4,578749835E-2
3,268512146E1	1,161874980E-1	-6,022499874E-2	3,726249933E-2
3,270528401E1	1,417624950E-1	-1,368124932E-1	8,195000142E-2
3,272544649E1	1,523499936E-1	-9,418749809E-2	1,414874941E-1
3,274560919E1	2,777500078E-2	-6,132499874E-2	1,021625027E-1
3,276577173E1	1,086249948E-2	-1,553750038E-2	2,873750031E-2
3,278593419E1	5,981250107E-2	-1,649999991E-3	6,916250288E-2
3,280609687E1	8,428750187E-2	-7,823749632E-2	9,899999946E-2
3,282625933E1	1,119249985E-1	-1,038125008E-1	7,658749819E-2
3,284642180E1	1,247124970E-1	-1,421750039E-1	6,806249917E-2
3,286658436E1	1,044999957E-1	-9,844999760E-2	7,342500240E-2
3,288674682E1	1,718750037E-2	-8,249999583E-2	3,616249934E-2
3,290690926E1	3,313750029E-2	-3,355000168E-2	4,358749837E-2
3,292707196E1	6,077500060E-2	-2,076249942E-2	9,047500044E-2
3,294723450E1	-7,108750194E-2	-4,812499974E-3	8,621250093E-2
3,296739689E1	-1,797125041E-1	7,919999957E-2	4,248749837E-2
3,298755944E1	-2,881999910E-1	7,067500055E-2	-1,814999990E-2
3,300772193E1	-2,818749845E-1	5,582499877E-2	-1,266375035E-1
3,302788462E1	-2,946625054E-1	-2,612499893E-2	-1,830125004E-1
3,304804709E1	-2,147749960E-1	-1,333750039E-2	-2,085874975E-1
3,306820961E1	-1,264999956E-1	1,512499992E-3	-1,681624949E-1
3,308837209E1	-6,586249918E-2	-1,127499994E-2	-1,064250022E-1
3,310853478E1	-7,644999772E-2	1,746249944E-2	-9,583749622E-2
3,312869723E1	-1,211374998E-1	4,303750023E-2	-1,192125008E-1
3,314885975E1	-1,126125008E-1	3,024999984E-2	-1,394249946E-1
3,316902222E1	-1,754499972E-1	-5,706249923E-2	-1,373624951E-1
3,318918491E1	-2,733500004E-1	-1,017499994E-2	-7,452499866E-2
3,320934738E1	-2,668874860E-1	2,708750032E-2	2,337500080E-2
3,322950990E1	-2,935625017E-1	-4,949999973E-2	4,784999788E-2
3,324967234E1	-3,212000132E-1	-4,427500069E-2	-3,932499886E-2
3,326983504E1	-3,286249936E-1	8,978749812E-2	-2,131249942E-2
3,328999759E1	-1,669249982E-1	1,430000067E-1	3,726249933E-2
3,331016004E1	-8,387500048E-2	1,324124932E-1	8,304999769E-2
3,333032249E1	-9,459999949E-2	9,624999762E-2	1,468500048E-1
3,335048518E1	-8,497499675E-2	7,383749634E-2	1,819124967E-1
3,337064765E1	-1,233374998E-1	5,472499877E-2	9,679999948E-2
3,339081012E1	-6,256250292E-2	7,177499682E-2	5,637500063E-2
3,341097257E1	-4,138749838E-2	9,515000135E-2	3,506249934E-2
3,343113510E1	4,386249930E-2	6,008749828E-2	1,010624990E-1
3,345129780E1	6,929999590E-2	4,193750024E-2	1,564749926E-1
3,347146025E1	-7,287499961E-3	8,030000329E-2	8,195000142E-2
3,349162274E1	-3,176249936E-2	8,139999956E-2	3,616249934E-2
3,351178528E1	4,908749834E-2	6,531249732E-2	1,149500012E-1
3,353194774E1	8,428750187E-2	5,046249926E-2	2,032250017E-1
3,355211044E1	7,246249914E-2	4,083750024E-2	2,543750107E-1
3,357227298E1	2,461249940E-2	-5,499999970E-4	2,139499933E-1
3,359243544E1	4,482499883E-2	-3,038750030E-2	9,569999576E-2
3,361259813E1	7,356250286E-2	-1,165999994E-1	3,409999982E-2
3,363276060E1	1,247124970E-1	-5,596249923E-2	6,916250288E-2
3,365292305E1	8,428750187E-2	7,974999957E-3	1,149500012E-1
3,367308558E1	-2,433750033E-2	1,036750004E-1	1,223749965E-1
3,369324804E1	-8,277499676E-2	1,346125007E-1	1,064250022E-1
3,371341051E1	-1,264999993E-2	2,818750031E-2	8,195000142E-2
3,373357319E1	4,482499883E-2	3,712499980E-3	2,763750032E-2
3,375373567E1	7,892499864E-2	-3,148749843E-2	-8,195000142E-2
3,377389821E1	8,951249719E-2	-1,237499993E-2	-1,106875017E-1
3,379406068E1	1,491875052E-1	4,193750024E-2	-3,836249933E-2
3,381422338E1	2,363625020E-1	6,957499683E-2	6,283749640E-2
3,383438583E1	2,268749923E-1	1,600500047E-1	9,679999948E-2
3,385454837E1	1,023000032E-1	2,292124927E-1	5,362499971E-3
3,387471106E1	7,466249913E-2	2,111999989E-1	-8,304999769E-2
3,389487350E1	3,313750029E-2	1,185249984E-1	-5,211250111E-2
3,391503602E1	1,292499993E-2	1,324124932E-1	6,324999966E-3
3,393519849E1	-6,187499966E-3	1,227874979E-1	7,548750192E-2
3,395536093E1	-9,624999948E-4	1,494625062E-1	1,212750003E-1
3,397552358E1	2,351249941E-2	1,207249984E-1	7,658749819E-2
3,399568604E1	-3,602499887E-2	7,067500055E-2	-2,241249941E-2
3,401584856E1	-3,918749839E-2	4,729999974E-2	-8,827500045E-2
3,403601103E1	-6,792499870E-2	4,413750023E-2	-9,253749996E-2
3,405617372E1	-8,813749999E-2	8,566249907E-2	-3,616249934E-2
3,407633621E1	-1,031249985E-1	1,409374923E-1	5,321250111E-2
3,409649874E1	-7,328750193E-2	1,685750037E-1	1,192125008E-1
3,411666143E1	-1,126125008E-1	1,579875052E-1	1,468500048E-1
3,413682396E1	-1,233374998E-1	9,941250086E-2	8,511249721E-2
3,415698642E1	-1,487749964E-1	-1,979999989E-2	-7,424999960E-3
3,417714892E1	-7,218749821E-2	-4,001250118E-2	1,168750040E-2
3,419731160E1	-3,382499889E-2	-5,279999971E-2	3,822499886E-2
3,421747407E1	-3,066249937E-2	1,636249945E-2	7,548750192E-2
3,423763655E1	-8,703749627E-2	1,058750004E-1	1,064250022E-1
3,425779909E1	-1,647250056E-1	1,025749967E-1	7,424999960E-3
3,427796179E1	-8,813749999E-2	8,772499859E-2	-7,768750191E-2
3,429812428E1	7,576250285E-2	-5,486249924E-2	-3,189999983E-2
3,431828678E1	1,768250018E-1	-9,748750180E-2	1,075249985E-1
3,433844933E1	9,487500042E-2	-1,229249984E-1	1,446499974E-1
3,435861178E1	-2,859999985E-2	-1,527625024E-1	7,122500241E-2
3,437877451E1	-1,691249944E-2	-1,091749966E-1	-5,362499971E-3
3,439893706E1	6,297499686E-2	-1,282874942E-1	-2,873750031E-2
3,441909951E1	7,782500237E-2	-1,102750003E-1	4,262499977E-3
3,443926196E1	6,613750011E-2	-1,399749964E-1	8,401250094E-2
3,445942463E1	-1,924999990E-3	-1,251250058E-1	1,042250022E-1
3,447958716E1	-1,897500083E-2	-8,359999955E-2	5,953750014E-2
3,449974962E1	-6,159999967E-2	-6,338749826E-2	-2,557500079E-2
3,451991208E1	-9,776250273E-2	6,874999963E-3	-8,841250092E-2
3,454007474E1	-7,864999771E-2	4,083750024E-2	-1,010624990E-1
3,456023720E1	-3,602499887E-2	1,319999993E-2	-1,416250020E-1
3,458039974E1	-5,307500064E-2	-4,949999973E-2	-1,724250019E-1
3,460056219E1	-1,031249985E-1	-7,301250100E-2	-1,649999917E-1
3,462072485E1	-2,749999985E-2	-2,296249941E-2	-1,809500009E-1
3,464088731E1	3,959999979E-2	-6,971249729E-2	-2,479124963E-1
3,466104988E1	9,597499669E-2	-3,258749843E-2	-2,990624905E-1
3,468121235E1	1,704999954E-1	8,772499859E-2	-1,863124967E-1
3,470137504E1	1,916749924E-1	1,238875017E-1	1,168750040E-2
3,472153757E1	9,061250091E-2	9,515000135E-2	1,095874980E-1
3,474170028E1	-4,124999978E-3	5,362499878E-2	8,401250094E-2
3,476186273E1	-6,159999967E-2	5,472499877E-2	9,624999948E-3
3,478202529E1	-9,624999948E-4	4,193750024E-2	-9,473749995E-2
3,480218776E1	9,597499669E-2	3,341250122E-2	-1,596374959E-1
3,482235046E1	1,087625027E-1	8,882500231E-2	-2,022625059E-1
3,484251301E1	1,023000032E-1	1,047749966E-1	-2,065249979E-1
3,486267547E1	2,254999988E-2	9,088750184E-2	-1,735250056E-1
3,488283794E1	-5,939999968E-2	9,735000134E-2	-1,649999917E-1
3,490300065E1	-1,094499975E-1	7,067500055E-2	-8,731249720E-2
3,492316320E1	-1,094499975E-1	3,135000169E-2	-5,431250110E-2
3,494332560E1	-1,179749966E-1	-1,443750039E-2	-5,115000159E-2
3,496348814E1	-1,126125008E-1	-3,781250119E-2	-8,084999770E-2
3,498365057E1	-1,062875018E-1	-1,759999990E-2	-5,953750014E-2
3,500381302E1	-1,083500013E-1	1,207249984E-1	-4,688749835E-2
3,502397600E1	-1,233374998E-1	2,058375031E-1	-8,827500045E-2
3,504413822E1	-1,552374959E-1	2,175250053E-1	-1,266375035E-1
3,506430066E1	-1,350249946E-1	1,856250018E-1	-2,022625059E-1
3,508446331E1	-1,817750037E-1	3,767500073E-2	-3,522749841E-1
3,510462576E1	-9,776250273E-2	-9,418749809E-2	-3,576374948E-1
3,512478830E1	-3,808749840E-2	-1,815000027E-1	-2,714250088E-1
3,514495098E1	-2,859999985E-2	-2,134000063E-1	-1,777874976E-1
3,516511348E1	-1,924999990E-3	-2,017125040E-1	-7,452499866E-2
3,518527602E1	2,461249940E-2	-1,889249980E-1	-2,983750030E-2
3,520543848E1	1,086249948E-2	-1,644500047E-1	-7,026249915E-2
3,522560096E1	-9,349999949E-3	-1,559250057E-1	-1,841125041E-1
3,524576364E1	1,608750038E-2	-1,922249943E-1	-2,000624985E-1
3,526592619E1	5,651250109E-2	-1,421750039E-1	-2,011625022E-1
3,528608866E1	5,444999784E-2	-1,240250021E-1	-1,702249944E-1
3,530625110E1	1,292499993E-2	-4,949999973E-2	-9,899999946E-2
3,532641378E1	-7,755000144E-2	3,767500073E-2	-5,004999787E-2
3,534657623E1	-1,105500013E-1	7,493750006E-2	-1,072499994E-2
3,536673876E1	-5,224999972E-3	-7,507500052E-2	2,131249942E-2
3,538690146E1	7,672499865E-2	-2,017125040E-1	1,372250021E-1
3,540706393E1	1,363999993E-1	-2,070749998E-1	2,021249980E-1
3,542722645E1	1,395625025E-1	-1,709125042E-1	2,564375103E-1
3,544738916E1	1,023000032E-1	-4,853750020E-2	2,575374842E-1
3,546755161E1	1,438249946E-1	1,746249944E-2	2,723875046E-1
3,548771408E1	1,332374960E-1	-1,017499994E-2	3,128125072E-1
3,550787662E1	8,002500236E-2	-4,523750022E-2	2,979624867E-1
3,552803908E1	1,608750038E-2	-6,558749825E-2	2,712875009E-1
3,554820155E1	-4,344999790E-2	-6,655000150E-2	2,054249942E-1
3,556836423E1	-5,197500065E-2	-9,638749808E-2	9,679999948E-2
3,558852668E1	-4,028749838E-2	-1,145374998E-1	-2,241249941E-2
3,560868924E1	-2,543750033E-2	-8,786249906E-2	-1,245749965E-1
3,562885193E1	2,254999988E-2	-1,869999990E-2	-1,542750001E-1
3,564901439E1	8,428750187E-2	-1,649999991E-2	-6,379999965E-2
3,566917686E1	1,417624950E-1	-3,849999979E-3	2,873750031E-2
3,568933938E1	4,276249930E-2	3,135000169E-2	-2,763750032E-2
3,570950208E1	-2,007500082E-2	1,966249943E-2	-7,026249915E-2
3,572966462E1	-3,286249936E-2	3,451250121E-2	-7,452499866E-2
3,574982733E1	-8,387500420E-3	3,024999984E-2	-6,806249917E-2
3,576998981E1	-7,287499961E-3	-8,112499490E-3	6,696250290E-2
3,579015235E1	5,128749833E-2	-2,076249942E-2	2,160124928E-1
3,581031482E1	3,959999979E-2	-7,617499679E-2	1,915374994E-1
3,583047754E1	5,871250108E-2	-9,748750180E-2	4,784999788E-2
3,585064000E1	4,056249931E-2	-9,006249905E-2	-3,299999982E-2
3,587080226E1	7,782500237E-2	-4,853750020E-2	-3,409999982E-2
3,589096502E1	1,172875017E-1	2,282499894E-2	-9,624999948E-3
3,591112749E1	8,635000139E-2	3,024999984E-2	6,696250290E-2
3,593128998E1	5,335000157E-2	3,657500073E-2	1,639000028E-1
3,595145267E1	-2,117500082E-2	1,003750041E-2	1,117874980E-1
3,597161513E1	-4,235000163E-2	-1,649999991E-2	-1,168750040E-2
3,599177768E1	-3,808749840E-2	-5,059999973E-2	-9,363749623E-2
3,601194013E1	1,718750037E-2	-4,111250117E-2	-7,658749819E-2
3,603210281E1	1,828750037E-2	-3,148749843E-2	-2,199999988E-3
3,605226524E1	-4,771250114E-2	-5,499999970E-4	4,262499977E-3
3,607242800E1	-7,864999771E-2	-3,464999795E-2	-2,337500080E-2
3,609259022E1	-9,886249900E-2	-1,080750003E-1	-6,806249917E-2
3,611275292E1	-1,211374998E-1	-7,397499681E-2	-1,564749926E-1
3,613291539E1	-9,459999949E-2	-1,979999989E-2	-1,787499934E-1
3,615307791E1	-7,438749820E-2	-5,499999970E-4	-8,827500045E-2
3,617324037E1	-8,607500046E-2	2,172499895E-2	-7,424999960E-3
3,619340306E1	-1,020250022E-1	1,319999993E-2	-9,899999946E-2
3,621356559E1	-1,615625024E-1	-7,301250100E-2	-2,415875047E-1
3,623372806E1	-1,105500013E-1	-1,538625062E-1	-2,022625059E-1
3,625389074E1	5,761250108E-2	-1,581249982E-1	2,763750032E-2
3,627405322E1	4,702499881E-2	-1,421750039E-1	8,827500045E-2
3,629421567E1	-5,623750016E-2	-7,727500051E-2	1,084875017E-1
3,631437818E1	-8,071249723E-2	3,244999796E-2	1,607374996E-1
3,633454086E1	-8,923749626E-2	3,987500072E-2	4,248749837E-2
3,635470333E1	-1,200374961E-1	-1,759999990E-2	-1,331000030E-1
3,637486585E1	3,107500076E-2	-3,781250119E-2	-1,937374920E-1
3,639502831E1	1,938749999E-1	-1,049124971E-1	-1,894749999E-1
3,641519101E1	2,098249942E-1	-1,527625024E-1	-1,777874976E-1
3,643535357E1	1,810874939E-1	-3,355000168E-2	-4,784999788E-2
3,645551603E1	5,651250109E-2	4,839999974E-2	5,637500063E-2
3,647567873E1	2,144999988E-2	3,877500072E-2	1,446499974E-1
3,649584130E1	1,033999994E-1	8,662500232E-2	1,809500009E-1
3,651600369E1	8,002500236E-2	1,111000031E-1	1,522125006E-1
3,653616622E1	8,318749815E-2	6,861250103E-2	1,138499975E-1
3,655632890E1	1,449249983E-1	1,966249943E-2	7,232499868E-2
3,657649138E1	1,023000032E-1	2,172499895E-2	1,911249943E-2
3,659665381E1	4,166249931E-2	3,877500072E-2	6,489999592E-2
3,661681657E1	1,002374962E-1	7,713750005E-2	1,841125041E-1
3,663697880E1	9,597499669E-2	1,121999994E-1	2,755500078E-1
3,665714150E1	5,444999784E-2	1,143999994E-1	3,000249863E-1
3,667730405E1	3,313750029E-2	8,978749812E-2	2,617999911E-1
3,669746671E1	5,128749833E-2	2,914999984E-2	1,639000028E-1
3,671762919E1	6,187500060E-2	5,774999969E-3	3,726249933E-2
3,673779166E1	4,908749834E-2	6,874999963E-3	-5,967500061E-2
3,675795421E1	1,608750038E-2	1,223750040E-2	-1,043625027E-1
3,677811691E1	-4,991250113E-2	4,303750023E-2	-1,021625027E-1
3,679827937E1	-5,307500064E-2	8,456250280E-2	-5,211250111E-2
3,681844194E1	-5,843750015E-2	1,324124932E-1	-4,578749835E-2
3,683860441E1	-1,647250056E-1	1,548250020E-1	-7,988750190E-2
3,685876710E1	-1,743499935E-1	1,463000029E-1	-9,157499671E-2
3,687892954E1	-1,073874980E-1	7,809999585E-2	-7,988750190E-2
3,689909198E1	-1,787500083E-2	-8,112499490E-3	-1,000999957E-1
3,691925474E1	3,533750027E-2	-7,933750004E-2	-1,064250022E-1
3,693941722E1	9,597499669E-2	-6,132499874E-2	5,321250111E-2
3,695957969E1	4,702499881E-2	-1,017499994E-2	1,340624988E-1
3,697974224E1	1,718750037E-2	3,135000169E-2	1,340624988E-1
3,699990468E1	1,292499993E-2	7,493750006E-2	1,064250022E-1
3,702006737E1	-1,581249945E-2	1,260875016E-1	6,489999592E-2
3,704022982E1	-1,044999994E-2	1,313125044E-1	4,784999788E-2
3,706039234E1	6,599999964E-3	8,566249907E-2	4,262499977E-3
3,708055481E1	1,608750038E-2	1,746249944E-2	-7,452499866E-2
3,710071752E1	-6,159999967E-2	-1,979999989E-2	-1,639000028E-1
3,712088007E1	-1,275999993E-1	-6,022499874E-2	-2,734875083E-1
3,714104251E1	-1,467124969E-1	-1,495999992E-1	-2,628999949E-1
3,716120531E1	-7,328750193E-2	-2,028124928E-1	-1,010624990E-1
3,718136779E1	-2,543750033E-2	-2,039124966E-1	1,594999991E-2
3,720153025E1	-2,543750033E-2	-1,868624985E-1	8,195000142E-2
3,722169294E1	-7,218749821E-2	-1,304875016E-1	7,658749819E-2
3,724185547E1	-1,328250021E-1	-8,896250278E-2	-2,873750031E-2
3,726201793E1	-1,168750003E-1	-6,971249729E-2	-1,319999993E-1
3,728218062E1	-5,513750017E-2	-3,781250119E-2	-1,032624990E-1
3,730234310E1	3,959999979E-2	-3,781250119E-2	1,704999991E-2
3,732250565E1	2,337499987E-3	-4,207500070E-2	1,010624990E-1
3,734266831E1	-3,602499887E-2	-5,499999970E-4	8,731249720E-2
3,736283076E1	2,997500077E-2	-8,112499490E-3	2,653750032E-2
3,738299327E1	5,128749833E-2	-2,928750031E-2	-3,409999982E-2
3,740315574E1	3,533750027E-2	-8,249999583E-2	-4,895000160E-2
3,742331844E1	2,681249939E-2	-1,473999918E-1	-1,099999994E-3
3,744348063E1	-4,124999978E-3	-1,464374959E-1	9,473749995E-2
3,746364332E1	-1,924999990E-3	-1,060125008E-1	1,659625024E-1
3,748380583E1	-1,897500083E-2	-4,427500069E-2	1,511124969E-1
3,750396852E1	1,086249948E-2	1,319999993E-2	1,713249981E-1
3,752413098E1	7,562499959E-3	7,287500054E-2	1,607374996E-1
3,754429345E1	-4,028749838E-2	1,142624989E-1	1,223749965E-1
3,756445600E1	-2,969999984E-2	7,383749634E-2	9,790000319E-2
3,758461849E1	2,777500078E-2	-1,649999991E-2	7,452499866E-2
3,760478118E1	4,702499881E-2	-1,017500013E-1	4,152499884E-2
3,762494372E1	1,267749965E-1	-1,740749925E-1	-2,667500079E-2
3,764510617E1	9,377499670E-2	-1,931875050E-1	-5,541250110E-2
3,766526887E1	2,034999989E-2	-6,764999777E-2	-5,431250110E-2
3,768543135E1	-4,564999789E-2	1,113750041E-2	8,731249720E-2
3,770559389E1	-3,176249936E-2	6,104999781E-2	2,128500044E-1
3,772575636E1	-5,087499972E-3	4,619999975E-2	2,384250015E-1
3,774591907E1	-7,287499961E-3	5,156249925E-2	1,607374996E-1
3,776608159E1	8,662499487E-3	-2,749999985E-3	6,916250288E-2
3,778624408E1	3,533750027E-2	-2,928750031E-2	-7,026249915E-2
3,780640676E1	2,351249941E-2	-4,111250117E-2	-1,329624951E-1
3,782656923E1	-3,024999984E-3	-7,191249728E-2	-1,830125004E-1
3,784673174E1	-2,213750035E-2	-2,749999985E-3	-9,790000319E-2
3,786689424E1	3,299999982E-3	2,598750032E-2	-2,763750032E-2
3,788705667E1	2,351249941E-2	5,156249925E-2	-6,063750014E-2
3,790721944E1	8,662499487E-3	6,104999781E-2	-1,351625025E-1
3,792738187E1	4,812499881E-2	3,341250122E-2	-1,500124931E-1
3,794754457E1	4,166249931E-2	3,135000169E-2	-1,627999991E-1
3,796770701E1	-1,924999990E-3	6,957499683E-2	-1,394249946E-1
3,798786956E1	3,533750027E-2	8,236250281E-2	-4,468749836E-2
3,800803226E1	4,386249930E-2	6,957499683E-2	2,021249942E-2
3,802819474E1	4,399999976E-3	5,362499878E-2	-8,524999954E-3
3,804835719E1	-5,087499972E-3	4,674999975E-3	-9,583749622E-2
3,806851969E1	3,423750028E-2	-3,781250119E-2	-1,181124970E-1
3,808868236E1	5,555000156E-2	-9,006249905E-2	-9,253749996E-2
3,810884482E1	2,777500078E-2	-8,786249906E-2	-1,000999957E-1
3,812900728E1	4,908749834E-2	-6,558749825E-2	-4,895000160E-2
3,814916983E1	8,855000138E-2	-4,633750021E-2	4,468749836E-2
3,816933251E1	8,428750187E-2	-1,553750038E-2	8,621250093E-2
3,818949507E1	7,259999961E-2	-1,649999991E-3	7,878749818E-2
3,820965775E1	3,959999979E-2	2,612499986E-3	3,836249933E-2
3,822982030E1	-8,387500420E-3	-2,749999985E-3	-2,021249942E-2
3,824998277E1	-2,859999985E-2	4,124999978E-4	-5,953750014E-2
3,827014550E1	-1,044999994E-2	-5,912499968E-3	-1,127500013E-1
3,829030798E1	1,828750037E-2	-8,676250279E-2	-1,533125043E-1
3,831047050E1	2,681249939E-2	-1,347499937E-1	-1,479499936E-1
3,833063306E1	-5,087500066E-2	-1,240250021E-1	-1,618375033E-1
3,835079554E1	-1,233374998E-1	-6,764999777E-2	-2,191749960E-1
3,837095799E1	-1,647250056E-1	-4,001250118E-2	-2,521750033E-1
3,839112069E1	-1,179749966E-1	-3,849999979E-3	-2,404875010E-1
3,841128314E1	-5,733750015E-2	-1,443750039E-2	-1,618375033E-1
3,843144568E1	2,681249939E-2	-6,558749825E-2	-1,278750040E-2
3,845160834E1	1,033999994E-1	-8,153750002E-2	1,405249983E-1
3,847177080E1	1,534499973E-1	-4,317500070E-2	1,809500009E-1
3,849193331E1	1,608749926E-1	4,124999978E-4	2,521750033E-1
3,851209575E1	2,172500044E-1	7,067500055E-2	3,203749955E-1
3,853225843E1	1,640374959E-1	1,175625026E-1	3,181749880E-1
3,855242087E1	1,480875015E-1	1,142624989E-1	2,947999835E-1
3,857258364E1	1,725624949E-1	8,139999956E-2	2,373249978E-1
3,859274587E1	2,001999915E-1	-1,333750039E-2	1,095874980E-1
3,861290855E1	1,076624990E-1	-4,633750021E-2	-9,047500044E-2
3,863307109E1	1,237499993E-3	-6,558749825E-2	-2,128500044E-1
3,865323354E1	7,672499865E-2	-2,406249940E-2	-2,191749960E-1
3,867339623E1	1,182499975E-1	2,612499986E-3	-1,351625025E-1
3,869355878E1	8,318749815E-2	1,319999993E-2	-2,337500080E-2
3,871372125E1	5,555000156E-2	-1,127499994E-2	9,996250272E-2
3,873388395E1	1,608750038E-2	-5,802499875E-2	9,473749995E-2
3,875404638E1	2,681249939E-2	-8,470000327E-2	2,763750032E-2
3,877420896E1	7,672499865E-2	-2,832499892E-2	-2,021249942E-2
3,879437164E1	9,707500041E-2	4,936249927E-2	2,227500081E-2
3,881453411E1	8,635000139E-2	7,383749634E-2	7,975000143E-2
3,883469666E1	3,533750027E-2	4,413750023E-2	4,042499885E-2
3,885485913E1	-2,213750035E-2	4,729999974E-2	-1,149500012E-1
3,887502181E1	-3,066249937E-2	2,282499894E-2	-1,787499934E-1
3,889518427E1	1,011999995E-1	2,392499894E-2	-9,790000319E-2
3,891534683E1	2,459875047E-1	-5,706249923E-2	-5,541250110E-2
3,893550927E1	2,545124888E-1	-1,379124969E-1	-8,084999770E-2
3,895567195E1	2,491499931E-1	-6,764999777E-2	-4,895000160E-2
3,897583449E1	2,396624982E-1	2,708750032E-2	4,358749837E-2
3,899599697E1	1,970375031E-1	1,966249943E-2	7,232499868E-2
3,901615965E1	2,300374955E-1	4,674999975E-3	8,511249721E-2
3,903632220E1	2,204124928E-1	1,636249945E-2	1,021625027E-1
3,905648467E1	1,247124970E-1	2,818750031E-2	4,578749835E-2
3,907664737E1	3,629999980E-2	4,413750023E-2	1,278750040E-2
3,909680984E1	4,276249930E-2	4,839999974E-2	-1,484999992E-2
3,911697227E1	2,034999989E-2	5,582499877E-2	-8,511249721E-2
3,913713505E1	-1,361249946E-2	7,713750005E-2	-7,452499866E-2
3,915729751E1	-5,939999968E-2	9,624999762E-2	-8,524999954E-3
3,917745995E1	-9,776250273E-2	9,624999762E-2	-1,058750041E-2
3,919762269E1	-1,487749964E-1	1,079374999E-1	-1,021625027E-1
3,921778516E1	-2,136749923E-1	6,215000153E-2	-1,979999989E-1
3,923794762E1	-1,456124932E-1	3,767500073E-2	-2,022625059E-1
3,925811014E1	1,374999993E-4	-4,207500070E-2	-8,937499672E-2
3,927827262E1	1,150875017E-1	-1,006499976E-1	5,211250111E-2
3,929843532E1	1,619749963E-1	-1,155000031E-1	1,852124929E-1
3,931859785E1	1,278750002E-1	-9,418749809E-2	2,276999950E-1
3,933876034E1	8,635000139E-2	-5,059999973E-2	2,521750033E-1
3,935892303E1	1,150875017E-1	-1,869999990E-2	2,564375103E-1
3,937908548E1	1,725624949E-1	2,062499896E-2	2,351250052E-1
3,939924801E1	2,151875049E-1	-1,759999990E-2	2,085874975E-1
3,941941047E1	2,853125036E-1	-6,338749826E-2	1,574375033E-1
3,943957318E1	2,331999987E-1	-9,322500229E-2	9,253749996E-2
3,945973565E1	2,066625059E-1	-1,336500049E-1	4,784999788E-2
3,947989821E1	1,534499973E-1	-1,794375032E-1	2,763750032E-2
3,950006091E1	1,469874978E-1	-1,729750037E-1	1,168750040E-2
3,952022336E1	1,460250020E-1	-1,314499974E-1	6,806249917E-2
3,954038591E1	6,297499686E-2	-3,148749843E-2	1,405249983E-1
3,956054838E1	-2,859999985E-2	5,898749828E-2	9,569999576E-2
3,958071106E1	-9,350000322E-2	3,341250122E-2	-4,578749835E-2
3,960087349E1	-5,829999968E-2	2,598750032E-2	-1,362625062E-1
3,962103605E1	-5,087499972E-3	1,058750004E-1	-2,234375030E-1
3,964119876E1	-3,602499887E-2	1,303499937E-1	-1,787499934E-1
3,966136123E1	-9,556250274E-2	1,101374999E-1	-8,511249721E-2
3,968152378E1	-1,243000031E-1	6,118749827E-2	-7,768750191E-2
3,970168644E1	-9,982500225E-2	-2,406249940E-2	-1,670625061E-1
3,972184896E1	-8,181250095E-2	-1,869999990E-2	-1,533125043E-1
3,974201142E1	-4,455000162E-2	2,598750032E-2	-1,117874980E-1
3,976217409E1	3,533750027E-2	2,488750033E-2	-1,043625027E-1
3,978233664E1	6,929999590E-2	2,282499894E-2	-1,234750003E-1
3,980249911E1	6,187500060E-2	1,319999993E-2	-1,117874980E-1
3,982266182E1	1,608750038E-2	-1,333750039E-2	-1,911249943E-2
3,984282428E1	1,828750037E-2	3,561250120E-2	9,143749624E-2
3,986298674E1	8,744999766E-2	-3,849999979E-3	1,053249985E-1
3,988314954E1	8,951249719E-2	-4,633750021E-2	2,557500079E-2
3,990331178E1	9,762499481E-3	-1,649999991E-3	-1,181124970E-1
3,992347448E1	-6,256250292E-2	-2,296249941E-2	-2,958999872E-1
3,994363695E1	4,386249930E-2	-1,038125008E-1	-3,713875115E-1
3,996379948E1	8,635000139E-2	-7,823749632E-2	-3,053874969E-1
3,998396218E1	3,739999980E-2	-7,727500051E-2	-1,394249946E-1
